trials.thisRepN,trials.thisTrialN,trials.thisN,trials.thisIndex,text_2.started,key_resp.started,key_resp.keys,key_resp.rt,key_resp_2.started,image.started,key_resp_2.keys,key_resp_2.rt,participant,session,date,expName,psychopyVersion,frameRate,
,,,,13.162603399949148,13.162603399949148,space,0.25436279992572963,,,,,228373,001,2023-06-01_15h35.05.742,magic_trick,2022.2.5,82.5039622637488,
0,0,0,0,,,,,13.453493700013496,13.453493700013496,space,0.8309713000198826,228373,001,2023-06-01_15h35.05.742,magic_trick,2022.2.5,82.5039622637488,
1,0,1,0,,,,,14.319896599976346,14.319896599976346,space,0.3897673999890685,228373,001,2023-06-01_15h35.05.742,magic_trick,2022.2.5,82.5039622637488,
2,0,2,0,,,,,14.738008999964222,14.738008999964222,space,0.14470360008999705,228373,001,2023-06-01_15h35.05.742,magic_trick,2022.2.5,82.5039622637488,
3,0,3,0,,,,,14.907859400031157,14.907859400031157,space,0.15977019991260022,228373,001,2023-06-01_15h35.05.742,magic_trick,2022.2.5,82.5039622637488,
4,0,4,0,,,,,15.095464500016533,15.095464500016533,space,0.12726580002345145,228373,001,2023-06-01_15h35.05.742,magic_trick,2022.2.5,82.5039622637488,
5,0,5,0,,,,,15.252970600035042,15.252970600035042,space,0.14101969997864217,228373,001,2023-06-01_15h35.05.742,magic_trick,2022.2.5,82.5039622637488,
6,0,6,0,,,,,15.422493900055997,15.422493900055997,space,0.13824920007027686,228373,001,2023-06-01_15h35.05.742,magic_trick,2022.2.5,82.5039622637488,
7,0,7,0,,,,,15.592453100020066,15.592453100020066,space,0.12486159999389201,228373,001,2023-06-01_15h35.05.742,magic_trick,2022.2.5,82.5039622637488,
8,0,8,0,,,,,15.749974700040184,15.749974700040184,space,0.11831029993481934,228373,001,2023-06-01_15h35.05.742,magic_trick,2022.2.5,82.5039622637488,
9,0,9,0,,,,,15.902159900055267,15.902159900055267,space,0.12526879995130002,228373,001,2023-06-01_15h35.05.742,magic_trick,2022.2.5,82.5039622637488,
10,0,10,0,,,,,16.053190300008282,16.053190300008282,space,0.13432660000398755,228373,001,2023-06-01_15h35.05.742,magic_trick,2022.2.5,82.5039622637488,
11,0,11,0,,,,,16.223160800058395,16.223160800058395,space,0.1273104000138119,228373,001,2023-06-01_15h35.05.742,magic_trick,2022.2.5,82.5039622637488,
12,0,12,0,,,,,16.380133399972692,16.380133399972692,space,0.1323904999298975,228373,001,2023-06-01_15h35.05.742,magic_trick,2022.2.5,82.5039622637488,
13,0,13,0,,,,,16.533043600036763,16.533043600036763,space,0.15368170011788607,228373,001,2023-06-01_15h35.05.742,magic_trick,2022.2.5,82.5039622637488,
14,0,14,0,,,,,16.720470000058413,16.720470000058413,space,0.1251443000510335,228373,001,2023-06-01_15h35.05.742,magic_trick,2022.2.5,82.5039622637488,
15,0,15,0,,,,,16.871132000000216,16.871132000000216,space,0.14409730001352727,228373,001,2023-06-01_15h35.05.742,magic_trick,2022.2.5,82.5039622637488,
16,0,16,0,,,,,17.040469800005667,17.040469800005667,space,0.14467800001148134,228373,001,2023-06-01_15h35.05.742,magic_trick,2022.2.5,82.5039622637488,
17,0,17,0,,,,,17.210688499966636,17.210688499966636,space,0.1339382000733167,228373,001,2023-06-01_15h35.05.742,magic_trick,2022.2.5,82.5039622637488,
18,0,18,0,,,,,17.373866499983706,17.373866499983706,space,0.15074960002675653,228373,001,2023-06-01_15h35.05.742,magic_trick,2022.2.5,82.5039622637488,
19,0,19,0,,,,,17.550107900053263,17.550107900053263,space,0.130728300078772,228373,001,2023-06-01_15h35.05.742,magic_trick,2022.2.5,82.5039622637488,
20,0,20,0,,,,,17.70756530005019,17.70756530005019,space,0.1503633001120761,228373,001,2023-06-01_15h35.05.742,magic_trick,2022.2.5,82.5039622637488,
21,0,21,0,,,,,17.883452499983832,17.883452499983832,space,0.13745629996992648,228373,001,2023-06-01_15h35.05.742,magic_trick,2022.2.5,82.5039622637488,
22,0,22,0,,,,,18.052922699949704,18.052922699949704,space,0.1440894000697881,228373,001,2023-06-01_15h35.05.742,magic_trick,2022.2.5,82.5039622637488,
23,0,23,0,,,,,18.222570799989626,18.222570799989626,space,0.144423000048846,228373,001,2023-06-01_15h35.05.742,magic_trick,2022.2.5,82.5039622637488,
24,0,24,0,,,,,18.391850500018336,18.391850500018336,space,0.15620209998451173,228373,001,2023-06-01_15h35.05.742,magic_trick,2022.2.5,82.5039622637488,
25,0,25,0,,,,,18.579956399975345,18.579956399975345,space,0.14216609997674823,228373,001,2023-06-01_15h35.05.742,magic_trick,2022.2.5,82.5039622637488,
26,0,26,0,,,,,18.7450564999599,18.7450564999599,space,0.15323120006360114,228373,001,2023-06-01_15h35.05.742,magic_trick,2022.2.5,82.5039622637488,
27,0,27,0,,,,,18.9253792000236,18.9253792000236,space,0.11386339995078743,228373,001,2023-06-01_15h35.05.742,magic_trick,2022.2.5,82.5039622637488,
28,0,28,0,,,,,19.06497499998659,19.06497499998659,space,0.13586380006745458,228373,001,2023-06-01_15h35.05.742,magic_trick,2022.2.5,82.5039622637488,
29,0,29,0,,,,,19.229068099986762,19.229068099986762,space,0.15006929996889085,228373,001,2023-06-01_15h35.05.742,magic_trick,2022.2.5,82.5039622637488,
30,0,30,0,,,,,19.405674100038595,19.405674100038595,space,0.12455469998531044,228373,001,2023-06-01_15h35.05.742,magic_trick,2022.2.5,82.5039622637488,
31,0,31,0,,,,,19.55582420004066,19.55582420004066,space,0.1291201999410987,228373,001,2023-06-01_15h35.05.742,magic_trick,2022.2.5,82.5039622637488,
32,0,32,0,,,,,19.71330930001568,19.71330930001568,space,0.10767079994548112,228373,001,2023-06-01_15h35.05.742,magic_trick,2022.2.5,82.5039622637488,
33,0,33,0,,,,,19.852884100051597,19.852884100051597,space,0.24130190000869334,228373,001,2023-06-01_15h35.05.742,magic_trick,2022.2.5,82.5039622637488,
34,0,34,0,,,,,20.11890899995342,20.11890899995342,space,0.13466000009793788,228373,001,2023-06-01_15h35.05.742,magic_trick,2022.2.5,82.5039622637488,
35,0,35,0,,,,,20.28277990000788,20.28277990000788,space,0.09772540000267327,228373,001,2023-06-01_15h35.05.742,magic_trick,2022.2.5,82.5039622637488,
36,0,36,0,,,,,20.416716399951838,20.416716399951838,space,0.10093469999264926,228373,001,2023-06-01_15h35.05.742,magic_trick,2022.2.5,82.5039622637488,
37,0,37,0,,,,,20.543494899990037,20.543494899990037,space,0.1436033999780193,228373,001,2023-06-01_15h35.05.742,magic_trick,2022.2.5,82.5039622637488,
38,0,38,0,,,,,20.712258800049312,20.712258800049312,space,0.1788597000995651,228373,001,2023-06-01_15h35.05.742,magic_trick,2022.2.5,82.5039622637488,
39,0,39,0,,,,,20.919232200016268,20.919232200016268,space,0.11146659997757524,228373,001,2023-06-01_15h35.05.742,magic_trick,2022.2.5,82.5039622637488,
40,0,40,0,,,,,21.058845499996096,21.058845499996096,space,0.13436499994713813,228373,001,2023-06-01_15h35.05.742,magic_trick,2022.2.5,82.5039622637488,
41,0,41,0,,,,,21.228832600056194,21.228832600056194,space,0.10899909993167967,228373,001,2023-06-01_15h35.05.742,magic_trick,2022.2.5,82.5039622637488,
42,0,42,0,,,,,21.360570200020447,21.360570200020447,space,0.13319299998693168,228373,001,2023-06-01_15h35.05.742,magic_trick,2022.2.5,82.5039622637488,
43,0,43,0,,,,,21.52612389996648,21.52612389996648,space,0.1106593000004068,228373,001,2023-06-01_15h35.05.742,magic_trick,2022.2.5,82.5039622637488,
44,0,44,0,,,,,21.670315299998038,21.670315299998038,space,0.1206872999900952,228373,001,2023-06-01_15h35.05.742,magic_trick,2022.2.5,82.5039622637488,
45,0,45,0,,,,,21.822298099985346,21.822298099985346,space,0.13359640003181994,228373,001,2023-06-01_15h35.05.742,magic_trick,2022.2.5,82.5039622637488,
46,0,46,0,,,,,21.99201729998458,21.99201729998458,space,0.22120279993396252,228373,001,2023-06-01_15h35.05.742,magic_trick,2022.2.5,82.5039622637488,
47,0,47,0,,,,,22.24020020000171,22.24020020000171,space,0.1798051999649033,228373,001,2023-06-01_15h35.05.742,magic_trick,2022.2.5,82.5039622637488,
48,0,48,0,,,,,22.446496300050057,22.446496300050057,space,0.1345390999922529,228373,001,2023-06-01_15h35.05.742,magic_trick,2022.2.5,82.5039622637488,
49,0,49,0,,,,,22.609692899975926,22.609692899975926,space,0.14410939998924732,228373,001,2023-06-01_15h35.05.742,magic_trick,2022.2.5,82.5039622637488,
