trials.thisRepN,trials.thisTrialN,trials.thisN,trials.thisIndex,text_2.started,key_resp.started,key_resp.keys,key_resp.rt,key_resp.duration,key_resp_2.started,card_1.started,card_2.started,card_3.started,card_4.started,card_5.started,card_6.started,card_7.started,card_8.started,card_9.started,key_resp_2.keys,key_resp_2.rt,key_resp_2.duration,a_card.started,a_card.stopped,participant,session,date,expName,psychopyVersion,frameRate,
,,,,7.880440000008093,7.880440000008093,space,27.622589799997513,None,,,,,,,,,,,,,,,,316686,001,2023-08-03_17h49.09.084,magic_trick,2023.1.3,163.75456465214148,
,,,,,,,,,35.6598406000121,35.6598406000121,35.6598406000121,35.6598406000121,35.6598406000121,35.6598406000121,35.6598406000121,35.6598406000121,35.6598406000121,35.6598406000121,space,1.0590210999944247,None,,,316686,001,2023-08-03_17h49.09.084,magic_trick,2023.1.3,163.75456465214148,
0,0,0,0,,,,,,,,,,,,,,,,,,,37.02152960000967,38.32918400000199,316686,001,2023-08-03_17h49.09.084,magic_trick,2023.1.3,163.75456465214148,
1,0,1,0,,,,,,,,,,,,,,,,,,,38.62055110000074,39.929473700001836,316686,001,2023-08-03_17h49.09.084,magic_trick,2023.1.3,163.75456465214148,
2,0,2,0,,,,,,,,,,,,,,,,,,,40.22102030001406,41.52788610001153,316686,001,2023-08-03_17h49.09.084,magic_trick,2023.1.3,163.75456465214148,
3,0,3,0,,,,,,,,,,,,,,,,,,,41.82543340000848,,316686,001,2023-08-03_17h49.09.084,magic_trick,2023.1.3,163.75456465214148,
4,0,4,0,,,,,,,,,,,,,,,,,,,43.42682780000905,,316686,001,2023-08-03_17h49.09.084,magic_trick,2023.1.3,163.75456465214148,
5,0,5,0,,,,,,,,,,,,,,,,,,,45.020570600012434,46.32655730000988,316686,001,2023-08-03_17h49.09.084,magic_trick,2023.1.3,163.75456465214148,
6,0,6,0,,,,,,,,,,,,,,,,,,,46.626647299999604,,316686,001,2023-08-03_17h49.09.084,magic_trick,2023.1.3,163.75456465214148,
7,0,7,0,,,,,,,,,,,,,,,,,,,48.22039620000578,49.52925590000814,316686,001,2023-08-03_17h49.09.084,magic_trick,2023.1.3,163.75456465214148,
8,0,8,0,,,,,,,,,,,,,,,,,,,49.82638600000064,,316686,001,2023-08-03_17h49.09.084,magic_trick,2023.1.3,163.75456465214148,
9,0,9,0,,,,,,,,,,,,,,,,,,,51.42617040000914,,316686,001,2023-08-03_17h49.09.084,magic_trick,2023.1.3,163.75456465214148,
10,0,10,0,,,,,,,,,,,,,,,,,,,53.026227800000925,,316686,001,2023-08-03_17h49.09.084,magic_trick,2023.1.3,163.75456465214148,
11,0,11,0,,,,,,,,,,,,,,,,,,,54.62590510000882,,316686,001,2023-08-03_17h49.09.084,magic_trick,2023.1.3,163.75456465214148,
12,0,12,0,,,,,,,,,,,,,,,,,,,56.225788200012175,,316686,001,2023-08-03_17h49.09.084,magic_trick,2023.1.3,163.75456465214148,
13,0,13,0,,,,,,,,,,,,,,,,,,,57.825518400000874,,316686,001,2023-08-03_17h49.09.084,magic_trick,2023.1.3,163.75456465214148,
14,0,14,0,,,,,,,,,,,,,,,,,,,59.42524290000438,,316686,001,2023-08-03_17h49.09.084,magic_trick,2023.1.3,163.75456465214148,
15,0,15,0,,,,,,,,,,,,,,,,,,,61.02523560001282,,316686,001,2023-08-03_17h49.09.084,magic_trick,2023.1.3,163.75456465214148,
16,0,16,0,,,,,,,,,,,,,,,,,,,62.62557540000125,,316686,001,2023-08-03_17h49.09.084,magic_trick,2023.1.3,163.75456465214148,
17,0,17,0,,,,,,,,,,,,,,,,,,,64.22748130001128,65.53025230001367,316686,001,2023-08-03_17h49.09.084,magic_trick,2023.1.3,163.75456465214148,
18,0,18,0,,,,,,,,,,,,,,,,,,,65.82436840000446,67.13080150001042,316686,001,2023-08-03_17h49.09.084,magic_trick,2023.1.3,163.75456465214148,
19,0,19,0,,,,,,,,,,,,,,,,,,,67.42447820000234,68.73047150000639,316686,001,2023-08-03_17h49.09.084,magic_trick,2023.1.3,163.75456465214148,
20,0,20,0,,,,,,,,,,,,,,,,,,,69.02490700001363,70.33020240000042,316686,001,2023-08-03_17h49.09.084,magic_trick,2023.1.3,163.75456465214148,
21,0,21,0,,,,,,,,,,,,,,,,,,,70.62524290000147,71.93244970000524,316686,001,2023-08-03_17h49.09.084,magic_trick,2023.1.3,163.75456465214148,
22,0,22,0,,,,,,,,,,,,,,,,,,,72.22446400001354,73.52996200000052,316686,001,2023-08-03_17h49.09.084,magic_trick,2023.1.3,163.75456465214148,
23,0,23,0,,,,,,,,,,,,,,,,,,,73.82435970001097,75.12947800000256,316686,001,2023-08-03_17h49.09.084,magic_trick,2023.1.3,163.75456465214148,
24,0,24,0,,,,,,,,,,,,,,,,,,,75.42441230000986,76.73057840000547,316686,001,2023-08-03_17h49.09.084,magic_trick,2023.1.3,163.75456465214148,
25,0,25,0,,,,,,,,,,,,,,,,,,,77.02442800000426,78.32909769999969,316686,001,2023-08-03_17h49.09.084,magic_trick,2023.1.3,163.75456465214148,
26,0,26,0,,,,,,,,,,,,,,,,,,,78.62447680000332,79.92899210000178,316686,001,2023-08-03_17h49.09.084,magic_trick,2023.1.3,163.75456465214148,
27,0,27,0,,,,,,,,,,,,,,,,,,,80.22413510001206,81.52882130000216,316686,001,2023-08-03_17h49.09.084,magic_trick,2023.1.3,163.75456465214148,
28,0,28,0,,,,,,,,,,,,,,,,,,,81.82450220000464,83.12972180001088,316686,001,2023-08-03_17h49.09.084,magic_trick,2023.1.3,163.75456465214148,
29,0,29,0,,,,,,,,,,,,,,,,,,,83.42456060000404,84.73017890000483,316686,001,2023-08-03_17h49.09.084,magic_trick,2023.1.3,163.75456465214148,
30,0,30,0,,,,,,,,,,,,,,,,,,,85.02602790000674,86.32839750000858,316686,001,2023-08-03_17h49.09.084,magic_trick,2023.1.3,163.75456465214148,
31,0,31,0,,,,,,,,,,,,,,,,,,,86.6223650000029,87.93206890000147,316686,001,2023-08-03_17h49.09.084,magic_trick,2023.1.3,163.75456465214148,
32,0,32,0,,,,,,,,,,,,,,,,,,,88.22236880000855,89.52930600001127,316686,001,2023-08-03_17h49.09.084,magic_trick,2023.1.3,163.75456465214148,
33,0,33,0,,,,,,,,,,,,,,,,,,,89.8221162000118,91.12795950000873,316686,001,2023-08-03_17h49.09.084,magic_trick,2023.1.3,163.75456465214148,
34,0,34,0,,,,,,,,,,,,,,,,,,,91.42198520000966,92.73010270000668,316686,001,2023-08-03_17h49.09.084,magic_trick,2023.1.3,163.75456465214148,
35,0,35,0,,,,,,,,,,,,,,,,,,,93.0218875999999,94.32796780001081,316686,001,2023-08-03_17h49.09.084,magic_trick,2023.1.3,163.75456465214148,
36,0,36,0,,,,,,,,,,,,,,,,,,,94.62150440001278,95.92747840000084,316686,001,2023-08-03_17h49.09.084,magic_trick,2023.1.3,163.75456465214148,
37,0,37,0,,,,,,,,,,,,,,,,,,,96.22144250001293,97.52796380000655,316686,001,2023-08-03_17h49.09.084,magic_trick,2023.1.3,163.75456465214148,
38,0,38,0,,,,,,,,,,,,,,,,,,,97.8214047000074,99.12850500000059,316686,001,2023-08-03_17h49.09.084,magic_trick,2023.1.3,163.75456465214148,
39,0,39,0,,,,,,,,,,,,,,,,,,,99.42117290000897,100.72942250000779,316686,001,2023-08-03_17h49.09.084,magic_trick,2023.1.3,163.75456465214148,
40,0,40,0,,,,,,,,,,,,,,,,,,,101.02088450000156,102.32713260001037,316686,001,2023-08-03_17h49.09.084,magic_trick,2023.1.3,163.75456465214148,
41,0,41,0,,,,,,,,,,,,,,,,,,,102.62069030001294,103.92719760000182,316686,001,2023-08-03_17h49.09.084,magic_trick,2023.1.3,163.75456465214148,
42,0,42,0,,,,,,,,,,,,,,,,,,,104.22064420000243,105.52684030000819,316686,001,2023-08-03_17h49.09.084,magic_trick,2023.1.3,163.75456465214148,
43,0,43,0,,,,,,,,,,,,,,,,,,,105.82662040001014,,316686,001,2023-08-03_17h49.09.084,magic_trick,2023.1.3,163.75456465214148,
44,0,44,0,,,,,,,,,,,,,,,,,,,107.4266714000114,,316686,001,2023-08-03_17h49.09.084,magic_trick,2023.1.3,163.75456465214148,
45,0,45,0,,,,,,,,,,,,,,,,,,,109.02615600000718,,316686,001,2023-08-03_17h49.09.084,magic_trick,2023.1.3,163.75456465214148,
46,0,46,0,,,,,,,,,,,,,,,,,,,110.62611630000174,,316686,001,2023-08-03_17h49.09.084,magic_trick,2023.1.3,163.75456465214148,
47,0,47,0,,,,,,,,,,,,,,,,,,,112.22584640000423,,316686,001,2023-08-03_17h49.09.084,magic_trick,2023.1.3,163.75456465214148,
48,0,48,0,,,,,,,,,,,,,,,,,,,113.82572670000081,,316686,001,2023-08-03_17h49.09.084,magic_trick,2023.1.3,163.75456465214148,
49,0,49,0,,,,,,,,,,,,,,,,,,,115.42568820000452,,316686,001,2023-08-03_17h49.09.084,magic_trick,2023.1.3,163.75456465214148,
50,0,50,0,,,,,,,,,,,,,,,,,,,117.02572180000425,,316686,001,2023-08-03_17h49.09.084,magic_trick,2023.1.3,163.75456465214148,
51,0,51,0,,,,,,,,,,,,,,,,,,,118.62696490000235,,316686,001,2023-08-03_17h49.09.084,magic_trick,2023.1.3,163.75456465214148,
52,0,52,0,,,,,,,,,,,,,,,,,,,120.22498560001259,,316686,001,2023-08-03_17h49.09.084,magic_trick,2023.1.3,163.75456465214148,
53,0,53,0,,,,,,,,,,,,,,,,,,,121.8249494000047,,316686,001,2023-08-03_17h49.09.084,magic_trick,2023.1.3,163.75456465214148,
54,0,54,0,,,,,,,,,,,,,,,,,,,123.42494130000705,,316686,001,2023-08-03_17h49.09.084,magic_trick,2023.1.3,163.75456465214148,
55,0,55,0,,,,,,,,,,,,,,,,,,,125.02520610000647,,316686,001,2023-08-03_17h49.09.084,magic_trick,2023.1.3,163.75456465214148,
56,0,56,0,,,,,,,,,,,,,,,,,,,126.62525790001382,127.93025980000675,316686,001,2023-08-03_17h49.09.084,magic_trick,2023.1.3,163.75456465214148,
57,0,57,0,,,,,,,,,,,,,,,,,,,128.22531710000476,129.5307274000079,316686,001,2023-08-03_17h49.09.084,magic_trick,2023.1.3,163.75456465214148,
58,0,58,0,,,,,,,,,,,,,,,,,,,129.82473279999977,131.13208790001227,316686,001,2023-08-03_17h49.09.084,magic_trick,2023.1.3,163.75456465214148,
59,0,59,0,,,,,,,,,,,,,,,,,,,131.4267799000081,132.7298959000036,316686,001,2023-08-03_17h49.09.084,magic_trick,2023.1.3,163.75456465214148,
60,0,60,0,,,,,,,,,,,,,,,,,,,133.0243318000139,134.33005190000404,316686,001,2023-08-03_17h49.09.084,magic_trick,2023.1.3,163.75456465214148,
61,0,61,0,,,,,,,,,,,,,,,,,,,134.62465920000977,135.9294799000054,316686,001,2023-08-03_17h49.09.084,magic_trick,2023.1.3,163.75456465214148,
62,0,62,0,,,,,,,,,,,,,,,,,,,136.2261498000007,137.53097040001012,316686,001,2023-08-03_17h49.09.084,magic_trick,2023.1.3,163.75456465214148,
63,0,63,0,,,,,,,,,,,,,,,,,,,137.82306350000727,139.1298158000136,316686,001,2023-08-03_17h49.09.084,magic_trick,2023.1.3,163.75456465214148,
64,0,64,0,,,,,,,,,,,,,,,,,,,139.4231534999999,140.72883860000002,316686,001,2023-08-03_17h49.09.084,magic_trick,2023.1.3,163.75456465214148,
65,0,65,0,,,,,,,,,,,,,,,,,,,141.0230098000029,142.3292111000046,316686,001,2023-08-03_17h49.09.084,magic_trick,2023.1.3,163.75456465214148,
66,0,66,0,,,,,,,,,,,,,,,,,,,142.62282610000693,143.9295764000126,316686,001,2023-08-03_17h49.09.084,magic_trick,2023.1.3,163.75456465214148,
67,0,67,0,,,,,,,,,,,,,,,,,,,144.22271510001156,145.5304676000087,316686,001,2023-08-03_17h49.09.084,magic_trick,2023.1.3,163.75456465214148,
68,0,68,0,,,,,,,,,,,,,,,,,,,145.82244890001311,147.1324758000119,316686,001,2023-08-03_17h49.09.084,magic_trick,2023.1.3,163.75456465214148,
69,0,69,0,,,,,,,,,,,,,,,,,,,147.422237900013,148.7290791000123,316686,001,2023-08-03_17h49.09.084,magic_trick,2023.1.3,163.75456465214148,
70,0,70,0,,,,,,,,,,,,,,,,,,,149.02212750000763,150.3290810000035,316686,001,2023-08-03_17h49.09.084,magic_trick,2023.1.3,163.75456465214148,
71,0,71,0,,,,,,,,,,,,,,,,,,,150.6220433000126,151.92834320000838,316686,001,2023-08-03_17h49.09.084,magic_trick,2023.1.3,163.75456465214148,
72,0,72,0,,,,,,,,,,,,,,,,,,,152.22183550000773,153.52868390000367,316686,001,2023-08-03_17h49.09.084,magic_trick,2023.1.3,163.75456465214148,
73,0,73,0,,,,,,,,,,,,,,,,,,,153.82173440000042,155.12881820001348,316686,001,2023-08-03_17h49.09.084,magic_trick,2023.1.3,163.75456465214148,
74,0,74,0,,,,,,,,,,,,,,,,,,,155.42158790001122,156.72951950000424,316686,001,2023-08-03_17h49.09.084,magic_trick,2023.1.3,163.75456465214148,
75,0,75,0,,,,,,,,,,,,,,,,,,,157.02138900000136,158.32838670001365,316686,001,2023-08-03_17h49.09.084,magic_trick,2023.1.3,163.75456465214148,
76,0,76,0,,,,,,,,,,,,,,,,,,,158.62119340000208,159.92983750000712,316686,001,2023-08-03_17h49.09.084,magic_trick,2023.1.3,163.75456465214148,
77,0,77,0,,,,,,,,,,,,,,,,,,,160.22106050000002,161.52715680000256,316686,001,2023-08-03_17h49.09.084,magic_trick,2023.1.3,163.75456465214148,
78,0,78,0,,,,,,,,,,,,,,,,,,,161.82078740000725,163.12745720001112,316686,001,2023-08-03_17h49.09.084,magic_trick,2023.1.3,163.75456465214148,
79,0,79,0,,,,,,,,,,,,,,,,,,,163.42067900000256,164.72851620000438,316686,001,2023-08-03_17h49.09.084,magic_trick,2023.1.3,163.75456465214148,
80,0,80,0,,,,,,,,,,,,,,,,,,,165.02050990000134,166.3278302000108,316686,001,2023-08-03_17h49.09.084,magic_trick,2023.1.3,163.75456465214148,
81,0,81,0,,,,,,,,,,,,,,,,,,,166.62658570001076,,316686,001,2023-08-03_17h49.09.084,magic_trick,2023.1.3,163.75456465214148,
82,0,82,0,,,,,,,,,,,,,,,,,,,168.226236100003,,316686,001,2023-08-03_17h49.09.084,magic_trick,2023.1.3,163.75456465214148,
83,0,83,0,,,,,,,,,,,,,,,,,,,169.82607190001,,316686,001,2023-08-03_17h49.09.084,magic_trick,2023.1.3,163.75456465214148,
84,0,84,0,,,,,,,,,,,,,,,,,,,171.42598860000726,,316686,001,2023-08-03_17h49.09.084,magic_trick,2023.1.3,163.75456465214148,
85,0,85,0,,,,,,,,,,,,,,,,,,,173.02596150001045,,316686,001,2023-08-03_17h49.09.084,magic_trick,2023.1.3,163.75456465214148,
86,0,86,0,,,,,,,,,,,,,,,,,,,174.62627210000937,,316686,001,2023-08-03_17h49.09.084,magic_trick,2023.1.3,163.75456465214148,
87,0,87,0,,,,,,,,,,,,,,,,,,,176.22536980001314,,316686,001,2023-08-03_17h49.09.084,magic_trick,2023.1.3,163.75456465214148,
88,0,88,0,,,,,,,,,,,,,,,,,,,177.8255349000101,,316686,001,2023-08-03_17h49.09.084,magic_trick,2023.1.3,163.75456465214148,
89,0,89,0,,,,,,,,,,,,,,,,,,,179.42595590000565,,316686,001,2023-08-03_17h49.09.084,magic_trick,2023.1.3,163.75456465214148,
90,0,90,0,,,,,,,,,,,,,,,,,,,181.02607400000852,,316686,001,2023-08-03_17h49.09.084,magic_trick,2023.1.3,163.75456465214148,
91,0,91,0,,,,,,,,,,,,,,,,,,,182.62653630001296,,316686,001,2023-08-03_17h49.09.084,magic_trick,2023.1.3,163.75456465214148,
92,0,92,0,,,,,,,,,,,,,,,,,,,184.2252443000034,,316686,001,2023-08-03_17h49.09.084,magic_trick,2023.1.3,163.75456465214148,
93,0,93,0,,,,,,,,,,,,,,,,,,,185.8251636000059,187.13157120000687,316686,001,2023-08-03_17h49.09.084,magic_trick,2023.1.3,163.75456465214148,
94,0,94,0,,,,,,,,,,,,,,,,,,,187.42514950000623,188.73035730000993,316686,001,2023-08-03_17h49.09.084,magic_trick,2023.1.3,163.75456465214148,
95,0,95,0,,,,,,,,,,,,,,,,,,,189.02628260001075,190.3302330000006,316686,001,2023-08-03_17h49.09.084,magic_trick,2023.1.3,163.75456465214148,
96,0,96,0,,,,,,,,,,,,,,,,,,,190.62395790001028,191.93067020000308,316686,001,2023-08-03_17h49.09.084,magic_trick,2023.1.3,163.75456465214148,
97,0,97,0,,,,,,,,,,,,,,,,,,,192.22348860000784,193.53045510000084,316686,001,2023-08-03_17h49.09.084,magic_trick,2023.1.3,163.75456465214148,
98,0,98,0,,,,,,,,,,,,,,,,,,,193.82346240000334,195.13107510001282,316686,001,2023-08-03_17h49.09.084,magic_trick,2023.1.3,163.75456465214148,
99,0,99,0,,,,,,,,,,,,,,,,,,,195.42356810001365,196.73066330001166,316686,001,2023-08-03_17h49.09.084,magic_trick,2023.1.3,163.75456465214148,
100,0,100,0,,,,,,,,,,,,,,,,,,,197.02333940000972,198.33036380000704,316686,001,2023-08-03_17h49.09.084,magic_trick,2023.1.3,163.75456465214148,
101,0,101,0,,,,,,,,,,,,,,,,,,,198.62325350000174,199.93057060000137,316686,001,2023-08-03_17h49.09.084,magic_trick,2023.1.3,163.75456465214148,
102,0,102,0,,,,,,,,,,,,,,,,,,,200.22307130000263,201.53053530000034,316686,001,2023-08-03_17h49.09.084,magic_trick,2023.1.3,163.75456465214148,
103,0,103,0,,,,,,,,,,,,,,,,,,,201.82279630000994,203.1291721000016,316686,001,2023-08-03_17h49.09.084,magic_trick,2023.1.3,163.75456465214148,
104,0,104,0,,,,,,,,,,,,,,,,,,,203.42264870001236,204.72937290000846,316686,001,2023-08-03_17h49.09.084,magic_trick,2023.1.3,163.75456465214148,
105,0,105,0,,,,,,,,,,,,,,,,,,,205.02252410000074,206.3286638000136,316686,001,2023-08-03_17h49.09.084,magic_trick,2023.1.3,163.75456465214148,
106,0,106,0,,,,,,,,,,,,,,,,,,,206.6223742000002,207.9297387000115,316686,001,2023-08-03_17h49.09.084,magic_trick,2023.1.3,163.75456465214148,
107,0,107,0,,,,,,,,,,,,,,,,,,,208.22221760000684,209.53014480001002,316686,001,2023-08-03_17h49.09.084,magic_trick,2023.1.3,163.75456465214148,
108,0,108,0,,,,,,,,,,,,,,,,,,,209.8222853000043,211.13100540000596,316686,001,2023-08-03_17h49.09.084,magic_trick,2023.1.3,163.75456465214148,
109,0,109,0,,,,,,,,,,,,,,,,,,,211.42181100000744,212.7283090000128,316686,001,2023-08-03_17h49.09.084,magic_trick,2023.1.3,163.75456465214148,
110,0,110,0,,,,,,,,,,,,,,,,,,,213.02165420001256,214.32775780001248,316686,001,2023-08-03_17h49.09.084,magic_trick,2023.1.3,163.75456465214148,
111,0,111,0,,,,,,,,,,,,,,,,,,,214.62152990000322,215.92887140001403,316686,001,2023-08-03_17h49.09.084,magic_trick,2023.1.3,163.75456465214148,
112,0,112,0,,,,,,,,,,,,,,,,,,,216.2214166000049,217.52895700000226,316686,001,2023-08-03_17h49.09.084,magic_trick,2023.1.3,163.75456465214148,
113,0,113,0,,,,,,,,,,,,,,,,,,,217.8213642000046,219.12806600000476,316686,001,2023-08-03_17h49.09.084,magic_trick,2023.1.3,163.75456465214148,
114,0,114,0,,,,,,,,,,,,,,,,,,,219.4209317000059,220.72734480000508,316686,001,2023-08-03_17h49.09.084,magic_trick,2023.1.3,163.75456465214148,
115,0,115,0,,,,,,,,,,,,,,,,,,,221.0208144000062,222.3281769000023,316686,001,2023-08-03_17h49.09.084,magic_trick,2023.1.3,163.75456465214148,
116,0,116,0,,,,,,,,,,,,,,,,,,,222.62069770001108,223.9296202000114,316686,001,2023-08-03_17h49.09.084,magic_trick,2023.1.3,163.75456465214148,
117,0,117,0,,,,,,,,,,,,,,,,,,,224.22055230000115,225.52833120001014,316686,001,2023-08-03_17h49.09.084,magic_trick,2023.1.3,163.75456465214148,
118,0,118,0,,,,,,,,,,,,,,,,,,,225.82686600000306,,316686,001,2023-08-03_17h49.09.084,magic_trick,2023.1.3,163.75456465214148,
119,0,119,0,,,,,,,,,,,,,,,,,,,227.42034370001056,228.7266573000088,316686,001,2023-08-03_17h49.09.084,magic_trick,2023.1.3,163.75456465214148,
120,0,120,0,,,,,,,,,,,,,,,,,,,229.026068200008,,316686,001,2023-08-03_17h49.09.084,magic_trick,2023.1.3,163.75456465214148,
121,0,121,0,,,,,,,,,,,,,,,,,,,230.62610450001375,,316686,001,2023-08-03_17h49.09.084,magic_trick,2023.1.3,163.75456465214148,
122,0,122,0,,,,,,,,,,,,,,,,,,,232.22598380000272,,316686,001,2023-08-03_17h49.09.084,magic_trick,2023.1.3,163.75456465214148,
123,0,123,0,,,,,,,,,,,,,,,,,,,233.8273681999999,,316686,001,2023-08-03_17h49.09.084,magic_trick,2023.1.3,163.75456465214148,
124,0,124,0,,,,,,,,,,,,,,,,,,,235.42592580000928,,316686,001,2023-08-03_17h49.09.084,magic_trick,2023.1.3,163.75456465214148,
125,0,125,0,,,,,,,,,,,,,,,,,,,237.02631700001075,,316686,001,2023-08-03_17h49.09.084,magic_trick,2023.1.3,163.75456465214148,
126,0,126,0,,,,,,,,,,,,,,,,,,,238.6257370000094,,316686,001,2023-08-03_17h49.09.084,magic_trick,2023.1.3,163.75456465214148,
127,0,127,0,,,,,,,,,,,,,,,,,,,240.22651080001378,,316686,001,2023-08-03_17h49.09.084,magic_trick,2023.1.3,163.75456465214148,
128,0,128,0,,,,,,,,,,,,,,,,,,,241.82484580000164,,316686,001,2023-08-03_17h49.09.084,magic_trick,2023.1.3,163.75456465214148,
129,0,129,0,,,,,,,,,,,,,,,,,,,243.42575960000977,,316686,001,2023-08-03_17h49.09.084,magic_trick,2023.1.3,163.75456465214148,
130,0,130,0,,,,,,,,,,,,,,,,,,,245.026308600005,246.33145460000378,316686,001,2023-08-03_17h49.09.084,magic_trick,2023.1.3,163.75456465214148,
131,0,131,0,,,,,,,,,,,,,,,,,,,246.62443420001364,247.9305527000106,316686,001,2023-08-03_17h49.09.084,magic_trick,2023.1.3,163.75456465214148,
132,0,132,0,,,,,,,,,,,,,,,,,,,248.22408910001104,249.53105530000175,316686,001,2023-08-03_17h49.09.084,magic_trick,2023.1.3,163.75456465214148,
133,0,133,0,,,,,,,,,,,,,,,,,,,249.82413410001027,251.13194090001343,316686,001,2023-08-03_17h49.09.084,magic_trick,2023.1.3,163.75456465214148,
134,0,134,0,,,,,,,,,,,,,,,,,,,251.4238561000093,252.73087840000517,316686,001,2023-08-03_17h49.09.084,magic_trick,2023.1.3,163.75456465214148,
135,0,135,0,,,,,,,,,,,,,,,,,,,253.02371440001298,254.33077970000159,316686,001,2023-08-03_17h49.09.084,magic_trick,2023.1.3,163.75456465214148,
136,0,136,0,,,,,,,,,,,,,,,,,,,254.62358480000694,255.9319361000089,316686,001,2023-08-03_17h49.09.084,magic_trick,2023.1.3,163.75456465214148,
137,0,137,0,,,,,,,,,,,,,,,,,,,256.2232617000118,257.5302498000092,316686,001,2023-08-03_17h49.09.084,magic_trick,2023.1.3,163.75456465214148,
138,0,138,0,,,,,,,,,,,,,,,,,,,257.823893400011,259.1310196000122,316686,001,2023-08-03_17h49.09.084,magic_trick,2023.1.3,163.75456465214148,
139,0,139,0,,,,,,,,,,,,,,,,,,,259.42298700001265,260.72920920001343,316686,001,2023-08-03_17h49.09.084,magic_trick,2023.1.3,163.75456465214148,
140,0,140,0,,,,,,,,,,,,,,,,,,,261.02287260000594,262.32940919999965,316686,001,2023-08-03_17h49.09.084,magic_trick,2023.1.3,163.75456465214148,
141,0,141,0,,,,,,,,,,,,,,,,,,,262.6235780999996,263.9292487000057,316686,001,2023-08-03_17h49.09.084,magic_trick,2023.1.3,163.75456465214148,
142,0,142,0,,,,,,,,,,,,,,,,,,,264.2225718000118,265.5321600000025,316686,001,2023-08-03_17h49.09.084,magic_trick,2023.1.3,163.75456465214148,
143,0,143,0,,,,,,,,,,,,,,,,,,,265.8224399000028,267.1284929000103,316686,001,2023-08-03_17h49.09.084,magic_trick,2023.1.3,163.75456465214148,
144,0,144,0,,,,,,,,,,,,,,,,,,,267.4221189000091,268.7293723000039,316686,001,2023-08-03_17h49.09.084,magic_trick,2023.1.3,163.75456465214148,
145,0,145,0,,,,,,,,,,,,,,,,,,,269.0229010000039,270.3324546000076,316686,001,2023-08-03_17h49.09.084,magic_trick,2023.1.3,163.75456465214148,
146,0,146,0,,,,,,,,,,,,,,,,,,,270.6224324000068,271.9289897000126,316686,001,2023-08-03_17h49.09.084,magic_trick,2023.1.3,163.75456465214148,
147,0,147,0,,,,,,,,,,,,,,,,,,,272.2219793000113,273.5303312000033,316686,001,2023-08-03_17h49.09.084,magic_trick,2023.1.3,163.75456465214148,
148,0,148,0,,,,,,,,,,,,,,,,,,,273.82144460000563,275.12735530000646,316686,001,2023-08-03_17h49.09.084,magic_trick,2023.1.3,163.75456465214148,
149,0,149,0,,,,,,,,,,,,,,,,,,,275.42127570000594,276.7278753999999,316686,001,2023-08-03_17h49.09.084,magic_trick,2023.1.3,163.75456465214148,
150,0,150,0,,,,,,,,,,,,,,,,,,,277.0211794000061,278.32816540000204,316686,001,2023-08-03_17h49.09.084,magic_trick,2023.1.3,163.75456465214148,
151,0,151,0,,,,,,,,,,,,,,,,,,,278.62105030000384,279.9315382000059,316686,001,2023-08-03_17h49.09.084,magic_trick,2023.1.3,163.75456465214148,
152,0,152,0,,,,,,,,,,,,,,,,,,,280.22096790000796,281.5273339000123,316686,001,2023-08-03_17h49.09.084,magic_trick,2023.1.3,163.75456465214148,
153,0,153,0,,,,,,,,,,,,,,,,,,,281.8206080000091,283.1281325000018,316686,001,2023-08-03_17h49.09.084,magic_trick,2023.1.3,163.75456465214148,
154,0,154,0,,,,,,,,,,,,,,,,,,,283.4213740000123,284.72890680001,316686,001,2023-08-03_17h49.09.084,magic_trick,2023.1.3,163.75456465214148,
155,0,155,0,,,,,,,,,,,,,,,,,,,285.0268490000017,,316686,001,2023-08-03_17h49.09.084,magic_trick,2023.1.3,163.75456465214148,
156,0,156,0,,,,,,,,,,,,,,,,,,,286.626794300013,,316686,001,2023-08-03_17h49.09.084,magic_trick,2023.1.3,163.75456465214148,
157,0,157,0,,,,,,,,,,,,,,,,,,,288.22694700000284,,316686,001,2023-08-03_17h49.09.084,magic_trick,2023.1.3,163.75456465214148,
158,0,158,0,,,,,,,,,,,,,,,,,,,289.8259063000005,,316686,001,2023-08-03_17h49.09.084,magic_trick,2023.1.3,163.75456465214148,
159,0,159,0,,,,,,,,,,,,,,,,,,,291.42605380000896,,316686,001,2023-08-03_17h49.09.084,magic_trick,2023.1.3,163.75456465214148,
160,0,160,0,,,,,,,,,,,,,,,,,,,293.0263508000062,,316686,001,2023-08-03_17h49.09.084,magic_trick,2023.1.3,163.75456465214148,
161,0,161,0,,,,,,,,,,,,,,,,,,,294.62636200001,,316686,001,2023-08-03_17h49.09.084,magic_trick,2023.1.3,163.75456465214148,
162,0,162,0,,,,,,,,,,,,,,,,,,,296.2260285000084,,316686,001,2023-08-03_17h49.09.084,magic_trick,2023.1.3,163.75456465214148,
163,0,163,0,,,,,,,,,,,,,,,,,,,297.825886000006,,316686,001,2023-08-03_17h49.09.084,magic_trick,2023.1.3,163.75456465214148,
164,0,164,0,,,,,,,,,,,,,,,,,,,299.4249375000072,,316686,001,2023-08-03_17h49.09.084,magic_trick,2023.1.3,163.75456465214148,
165,0,165,0,,,,,,,,,,,,,,,,,,,301.0248541000037,,316686,001,2023-08-03_17h49.09.084,magic_trick,2023.1.3,163.75456465214148,
166,0,166,0,,,,,,,,,,,,,,,,,,,302.6247052000108,,316686,001,2023-08-03_17h49.09.084,magic_trick,2023.1.3,163.75456465214148,
167,0,167,0,,,,,,,,,,,,,,,,,,,304.2246632000024,,316686,001,2023-08-03_17h49.09.084,magic_trick,2023.1.3,163.75456465214148,
168,0,168,0,,,,,,,,,,,,,,,,,,,305.8242381000018,307.1297072000016,316686,001,2023-08-03_17h49.09.084,magic_trick,2023.1.3,163.75456465214148,
169,0,169,0,,,,,,,,,,,,,,,,,,,307.42411710000306,308.73048520000884,316686,001,2023-08-03_17h49.09.084,magic_trick,2023.1.3,163.75456465214148,
170,0,170,0,,,,,,,,,,,,,,,,,,,309.0249036000023,310.3305818000081,316686,001,2023-08-03_17h49.09.084,magic_trick,2023.1.3,163.75456465214148,
171,0,171,0,,,,,,,,,,,,,,,,,,,310.6240366000129,311.9306812000141,316686,001,2023-08-03_17h49.09.084,magic_trick,2023.1.3,163.75456465214148,
172,0,172,0,,,,,,,,,,,,,,,,,,,312.2237868000084,313.5316032000119,316686,001,2023-08-03_17h49.09.084,magic_trick,2023.1.3,163.75456465214148,
173,0,173,0,,,,,,,,,,,,,,,,,,,313.8288070000126,,316686,001,2023-08-03_17h49.09.084,magic_trick,2023.1.3,163.75456465214148,
174,0,174,0,,,,,,,,,,,,,,,,,,,315.42326730000786,316.7291907000035,316686,001,2023-08-03_17h49.09.084,magic_trick,2023.1.3,163.75456465214148,
175,0,175,0,,,,,,,,,,,,,,,,,,,317.02318280001055,318.32976550000603,316686,001,2023-08-03_17h49.09.084,magic_trick,2023.1.3,163.75456465214148,
176,0,176,0,,,,,,,,,,,,,,,,,,,318.62305550000747,319.9294956000085,316686,001,2023-08-03_17h49.09.084,magic_trick,2023.1.3,163.75456465214148,
177,0,177,0,,,,,,,,,,,,,,,,,,,320.22295020001184,,316686,001,2023-08-03_17h49.09.084,magic_trick,2023.1.3,163.75456465214148,
178,0,178,0,,,,,,,,,,,,,,,,,,,321.82317290001083,323.12913010000193,316686,001,2023-08-03_17h49.09.084,magic_trick,2023.1.3,163.75456465214148,
179,0,179,0,,,,,,,,,,,,,,,,,,,323.4224652000121,324.72632950000116,316686,001,2023-08-03_17h49.09.084,magic_trick,2023.1.3,163.75456465214148,
