trials.thisRepN,trials.thisTrialN,trials.thisN,trials.thisIndex,text_2.started,key_resp.started,key_resp.keys,key_resp.rt,key_resp.duration,key_resp_2.started,text_3.started,card_1.started,card_2.started,card_3.started,card_4.started,card_5.started,card_6.started,card_7.started,card_8.started,card_9.started,key_resp_2.keys,key_resp_2.rt,key_resp_2.duration,text.started,key_resp_3.started,key_resp_3.keys,key_resp_3.rt,key_resp_3.duration,text_4.started,polygon_2.started,a_card.started,a_card.stopped,text_5.started,key_resp_4.started,participant,session,date,expName,psychopyVersion,frameRate,
,,,,7.800495299976319,7.800495299976319,space,1.7842485000146553,None,,,,,,,,,,,,,,,,,,,,,,,,,,343526,001,2023-08-06_12h32.25.698,magic_trick,2023.1.3,164.80546369382336,
,,,,,,,,,9.743661799991969,9.743661799991969,9.743661799991969,9.743661799991969,9.743661799991969,9.743661799991969,9.743661799991969,9.743661799991969,9.743661799991969,9.743661799991969,9.743661799991969,space,0.881314400001429,None,,,,,,,,,,,,343526,001,2023-08-06_12h32.25.698,magic_trick,2023.1.3,164.80546369382336,
,,,,,,,,,,,,,,,,,,,,,,,10.635497500014026,10.635497500014026,space,0.6296244999975897,None,,,,,,,343526,001,2023-08-06_12h32.25.698,magic_trick,2023.1.3,164.80546369382336,
0,0,0,0,,,,,,,,,,,,,,,,,,,,,,,,,11.272524799976964,11.272524799976964,12.768224900006317,14.273205099976622,,,343526,001,2023-08-06_12h32.25.698,magic_trick,2023.1.3,164.80546369382336,
1,0,1,0,,,,,,,,,,,,,,,,,,,,,,,,,,,14.771575599967036,,,,343526,001,2023-08-06_12h32.25.698,magic_trick,2023.1.3,164.80546369382336,
2,0,2,0,,,,,,,,,,,,,,,,,,,,,,,,,,,16.771510699996725,,,,343526,001,2023-08-06_12h32.25.698,magic_trick,2023.1.3,164.80546369382336,
3,0,3,0,,,,,,,,,,,,,,,,,,,,,,,,,,,18.77115370001411,20.27490029996261,,,343526,001,2023-08-06_12h32.25.698,magic_trick,2023.1.3,164.80546369382336,
4,0,4,0,,,,,,,,,,,,,,,,,,,,,,,,,,,20.766061100002844,22.27572879998479,,,343526,001,2023-08-06_12h32.25.698,magic_trick,2023.1.3,164.80546369382336,
5,0,5,0,,,,,,,,,,,,,,,,,,,,,,,,,,,22.766564599995036,24.273774400004186,,,343526,001,2023-08-06_12h32.25.698,magic_trick,2023.1.3,164.80546369382336,
6,0,6,0,,,,,,,,,,,,,,,,,,,,,,,,,,,24.766774499963503,26.27320769999642,,,343526,001,2023-08-06_12h32.25.698,magic_trick,2023.1.3,164.80546369382336,
7,0,7,0,,,,,,,,,,,,,,,,,,,,,,,,,,,26.76658110000426,28.273586299968883,,,343526,001,2023-08-06_12h32.25.698,magic_trick,2023.1.3,164.80546369382336,
8,0,8,0,,,,,,,,,,,,,,,,,,,,,,,,,,,28.76638569997158,30.273145399987698,,,343526,001,2023-08-06_12h32.25.698,magic_trick,2023.1.3,164.80546369382336,
9,0,9,0,,,,,,,,,,,,,,,,,,,,,,,,,,,30.76620049995836,32.27228739997372,,,343526,001,2023-08-06_12h32.25.698,magic_trick,2023.1.3,164.80546369382336,
10,0,10,0,,,,,,,,,,,,,,,,,,,,,,,,,,,32.76599270000588,34.27413769997656,,,343526,001,2023-08-06_12h32.25.698,magic_trick,2023.1.3,164.80546369382336,
11,0,11,0,,,,,,,,,,,,,,,,,,,,,,,,,,,34.765792199992575,36.27289419999579,,,343526,001,2023-08-06_12h32.25.698,magic_trick,2023.1.3,164.80546369382336,
12,0,12,0,,,,,,,,,,,,,,,,,,,,,,,,,,,36.765579300001264,38.27318349998677,,,343526,001,2023-08-06_12h32.25.698,magic_trick,2023.1.3,164.80546369382336,
13,0,13,0,,,,,,,,,,,,,,,,,,,,,,,,,,,38.771370199974626,,,,343526,001,2023-08-06_12h32.25.698,magic_trick,2023.1.3,164.80546369382336,
14,0,14,0,,,,,,,,,,,,,,,,,,,,,,,,,,,40.77117159997579,,,,343526,001,2023-08-06_12h32.25.698,magic_trick,2023.1.3,164.80546369382336,
15,0,15,0,,,,,,,,,,,,,,,,,,,,,,,,,,,42.770966099982616,,,,343526,001,2023-08-06_12h32.25.698,magic_trick,2023.1.3,164.80546369382336,
16,0,16,0,,,,,,,,,,,,,,,,,,,,,,,,,,,44.77084809995722,,,,343526,001,2023-08-06_12h32.25.698,magic_trick,2023.1.3,164.80546369382336,
17,0,17,0,,,,,,,,,,,,,,,,,,,,,,,,,,,46.770552499976475,,,,343526,001,2023-08-06_12h32.25.698,magic_trick,2023.1.3,164.80546369382336,
18,0,18,0,,,,,,,,,,,,,,,,,,,,,,,,,,,48.77034129999811,,,,343526,001,2023-08-06_12h32.25.698,magic_trick,2023.1.3,164.80546369382336,
19,0,19,0,,,,,,,,,,,,,,,,,,,,,,,,,,,50.770140299980994,,,,343526,001,2023-08-06_12h32.25.698,magic_trick,2023.1.3,164.80546369382336,
20,0,20,0,,,,,,,,,,,,,,,,,,,,,,,,,,,52.76998799998546,,,,343526,001,2023-08-06_12h32.25.698,magic_trick,2023.1.3,164.80546369382336,
21,0,21,0,,,,,,,,,,,,,,,,,,,,,,,,,,,54.76977359998273,,,,343526,001,2023-08-06_12h32.25.698,magic_trick,2023.1.3,164.80546369382336,
22,0,22,0,,,,,,,,,,,,,,,,,,,,,,,,,,,56.769604499975685,58.27723710000282,,,343526,001,2023-08-06_12h32.25.698,magic_trick,2023.1.3,164.80546369382336,
23,0,23,0,,,,,,,,,,,,,,,,,,,,,,,,,,,58.76929849997396,60.276214799960144,,,343526,001,2023-08-06_12h32.25.698,magic_trick,2023.1.3,164.80546369382336,
24,0,24,0,,,,,,,,,,,,,,,,,,,,,,,,,,,60.76911299995845,62.27651880000485,,,343526,001,2023-08-06_12h32.25.698,magic_trick,2023.1.3,164.80546369382336,
25,0,25,0,,,,,,,,,,,,,,,,,,,,,,,,,,,62.768946999975014,64.27506309997989,,,343526,001,2023-08-06_12h32.25.698,magic_trick,2023.1.3,164.80546369382336,
26,0,26,0,,,,,,,,,,,,,,,,,,,,,,,,,,,64.76879150001332,66.2761090999702,,,343526,001,2023-08-06_12h32.25.698,magic_trick,2023.1.3,164.80546369382336,
27,0,27,0,,,,,,,,,,,,,,,,,,,,,,,,,,,66.76855400000932,68.27570120000746,,,343526,001,2023-08-06_12h32.25.698,magic_trick,2023.1.3,164.80546369382336,
28,0,28,0,,,,,,,,,,,,,,,,,,,,,,,,,,,68.76833240000997,70.27532369998517,,,343526,001,2023-08-06_12h32.25.698,magic_trick,2023.1.3,164.80546369382336,
29,0,29,0,,,,,,,,,,,,,,,,,,,,,,,,,,,70.76811870001256,72.27515949995723,,,343526,001,2023-08-06_12h32.25.698,magic_trick,2023.1.3,164.80546369382336,
30,0,30,0,,,,,,,,,,,,,,,,,,,,,,,,,,,72.76792489999207,74.27471500000684,,,343526,001,2023-08-06_12h32.25.698,magic_trick,2023.1.3,164.80546369382336,
31,0,31,0,,,,,,,,,,,,,,,,,,,,,,,,,,,74.7678401999874,76.27416279999306,,,343526,001,2023-08-06_12h32.25.698,magic_trick,2023.1.3,164.80546369382336,
32,0,32,0,,,,,,,,,,,,,,,,,,,,,,,,,,,76.76754949998576,78.2744410999585,,,343526,001,2023-08-06_12h32.25.698,magic_trick,2023.1.3,164.80546369382336,
33,0,33,0,,,,,,,,,,,,,,,,,,,,,,,,,,,78.76740819995757,80.27414090000093,,,343526,001,2023-08-06_12h32.25.698,magic_trick,2023.1.3,164.80546369382336,
34,0,34,0,,,,,,,,,,,,,,,,,,,,,,,,,,,80.76712979999138,82.27403829997638,,,343526,001,2023-08-06_12h32.25.698,magic_trick,2023.1.3,164.80546369382336,
35,0,35,0,,,,,,,,,,,,,,,,,,,,,,,,,,,82.7670184999588,84.27332039998146,,,343526,001,2023-08-06_12h32.25.698,magic_trick,2023.1.3,164.80546369382336,
36,0,36,0,,,,,,,,,,,,,,,,,,,,,,,,,,,84.76674819999607,86.27479349996429,,,343526,001,2023-08-06_12h32.25.698,magic_trick,2023.1.3,164.80546369382336,
37,0,37,0,,,,,,,,,,,,,,,,,,,,,,,,,,,86.76655399997253,88.27399779995903,,,343526,001,2023-08-06_12h32.25.698,magic_trick,2023.1.3,164.80546369382336,
38,0,38,0,,,,,,,,,,,,,,,,,,,,,,,,,,,88.76635190000525,90.2730784000014,,,343526,001,2023-08-06_12h32.25.698,magic_trick,2023.1.3,164.80546369382336,
39,0,39,0,,,,,,,,,,,,,,,,,,,,,,,,,,,90.76614799996605,92.27383699995698,,,343526,001,2023-08-06_12h32.25.698,magic_trick,2023.1.3,164.80546369382336,
40,0,40,0,,,,,,,,,,,,,,,,,,,,,,,,,,,92.7659633999574,94.27512189996196,,,343526,001,2023-08-06_12h32.25.698,magic_trick,2023.1.3,164.80546369382336,
41,0,41,0,,,,,,,,,,,,,,,,,,,,,,,,,,,94.765791599988,96.27500520000467,,,343526,001,2023-08-06_12h32.25.698,magic_trick,2023.1.3,164.80546369382336,
42,0,42,0,,,,,,,,,,,,,,,,,,,,,,,,,,,96.77151699998649,,,,343526,001,2023-08-06_12h32.25.698,magic_trick,2023.1.3,164.80546369382336,
43,0,43,0,,,,,,,,,,,,,,,,,,,,,,,,,,,98.77139919996262,,,,343526,001,2023-08-06_12h32.25.698,magic_trick,2023.1.3,164.80546369382336,
44,0,44,0,,,,,,,,,,,,,,,,,,,,,,,,,,,100.77113409998128,,,,343526,001,2023-08-06_12h32.25.698,magic_trick,2023.1.3,164.80546369382336,
45,0,45,0,,,,,,,,,,,,,,,,,,,,,,,,,,,102.77092149999226,,,,343526,001,2023-08-06_12h32.25.698,magic_trick,2023.1.3,164.80546369382336,
46,0,46,0,,,,,,,,,,,,,,,,,,,,,,,,,,,104.77071349998005,,,,343526,001,2023-08-06_12h32.25.698,magic_trick,2023.1.3,164.80546369382336,
47,0,47,0,,,,,,,,,,,,,,,,,,,,,,,,,,,106.77144629997201,,,,343526,001,2023-08-06_12h32.25.698,magic_trick,2023.1.3,164.80546369382336,
48,0,48,0,,,,,,,,,,,,,,,,,,,,,,,,,,,108.77027149999049,,,,343526,001,2023-08-06_12h32.25.698,magic_trick,2023.1.3,164.80546369382336,
49,0,49,0,,,,,,,,,,,,,,,,,,,,,,,,,,,110.7700861999765,,,,343526,001,2023-08-06_12h32.25.698,magic_trick,2023.1.3,164.80546369382336,
50,0,50,0,,,,,,,,,,,,,,,,,,,,,,,,,,,112.76997989998199,,,,343526,001,2023-08-06_12h32.25.698,magic_trick,2023.1.3,164.80546369382336,
51,0,51,0,,,,,,,,,,,,,,,,,,,,,,,,,,,114.76970000000438,,,,343526,001,2023-08-06_12h32.25.698,magic_trick,2023.1.3,164.80546369382336,
52,0,52,0,,,,,,,,,,,,,,,,,,,,,,,,,,,116.76947339996696,118.27623019996099,,,343526,001,2023-08-06_12h32.25.698,magic_trick,2023.1.3,164.80546369382336,
53,0,53,0,,,,,,,,,,,,,,,,,,,,,,,,,,,118.76928199996473,120.2768333000131,,,343526,001,2023-08-06_12h32.25.698,magic_trick,2023.1.3,164.80546369382336,
54,0,54,0,,,,,,,,,,,,,,,,,,,,,,,,,,,120.76914049999323,122.27620409999508,,,343526,001,2023-08-06_12h32.25.698,magic_trick,2023.1.3,164.80546369382336,
55,0,55,0,,,,,,,,,,,,,,,,,,,,,,,,,,,122.7690005999757,124.27477269998053,,,343526,001,2023-08-06_12h32.25.698,magic_trick,2023.1.3,164.80546369382336,
56,0,56,0,,,,,,,,,,,,,,,,,,,,,,,,,,,124.7687252999749,126.27594819996739,,,343526,001,2023-08-06_12h32.25.698,magic_trick,2023.1.3,164.80546369382336,
57,0,57,0,,,,,,,,,,,,,,,,,,,,,,,,,,,126.76850359997479,128.2753331999993,,,343526,001,2023-08-06_12h32.25.698,magic_trick,2023.1.3,164.80546369382336,
58,0,58,0,,,,,,,,,,,,,,,,,,,,,,,,,,,128.7682911999873,130.27484570001252,,,343526,001,2023-08-06_12h32.25.698,magic_trick,2023.1.3,164.80546369382336,
59,0,59,0,,,,,,,,,,,,,,,,,,,,,,,,,,,130.7681475999998,132.27532499999506,,,343526,001,2023-08-06_12h32.25.698,magic_trick,2023.1.3,164.80546369382336,
60,0,60,0,,,,,,,,,,,,,,,,,,,,,,,,,,,132.76796600001398,134.27571829996305,,,343526,001,2023-08-06_12h32.25.698,magic_trick,2023.1.3,164.80546369382336,
61,0,61,0,,,,,,,,,,,,,,,,,,,,,,,,,,,134.76775629998883,136.27516229997855,,,343526,001,2023-08-06_12h32.25.698,magic_trick,2023.1.3,164.80546369382336,
62,0,62,0,,,,,,,,,,,,,,,,,,,,,,,,,,,136.76837770000566,138.2743142999825,,,343526,001,2023-08-06_12h32.25.698,magic_trick,2023.1.3,164.80546369382336,
63,0,63,0,,,,,,,,,,,,,,,,,,,,,,,,,,,138.76776109996717,140.2747414999758,,,343526,001,2023-08-06_12h32.25.698,magic_trick,2023.1.3,164.80546369382336,
64,0,64,0,,,,,,,,,,,,,,,,,,,,,,,,,,,140.76671960001113,142.27328490000218,,,343526,001,2023-08-06_12h32.25.698,magic_trick,2023.1.3,164.80546369382336,
65,0,65,0,,,,,,,,,,,,,,,,,,,,,,,,,,,142.76691979996394,144.27377450000495,,,343526,001,2023-08-06_12h32.25.698,magic_trick,2023.1.3,164.80546369382336,
66,0,66,0,,,,,,,,,,,,,,,,,,,,,,,,,,,144.7667339000036,146.27560569997877,,,343526,001,2023-08-06_12h32.25.698,magic_trick,2023.1.3,164.80546369382336,
67,0,67,0,,,,,,,,,,,,,,,,,,,,,,,,,,,146.76659529999597,148.27461759996368,,,343526,001,2023-08-06_12h32.25.698,magic_trick,2023.1.3,164.80546369382336,
68,0,68,0,,,,,,,,,,,,,,,,,,,,,,,,,,,148.76638960000128,150.27532029995928,,,343526,001,2023-08-06_12h32.25.698,magic_trick,2023.1.3,164.80546369382336,
69,0,69,0,,,,,,,,,,,,,,,,,,,,,,,,,,,150.76611590001266,152.2765730000101,,,343526,001,2023-08-06_12h32.25.698,magic_trick,2023.1.3,164.80546369382336,
70,0,70,0,,,,,,,,,,,,,,,,,,,,,,,,,,,152.76597599999513,154.27287479996448,,,343526,001,2023-08-06_12h32.25.698,magic_trick,2023.1.3,164.80546369382336,
71,0,71,0,,,,,,,,,,,,,,,,,,,,,,,,,,,154.76564890000736,156.2731347999652,,,343526,001,2023-08-06_12h32.25.698,magic_trick,2023.1.3,164.80546369382336,
72,0,72,0,,,,,,,,,,,,,,,,,,,,,,,,,,,156.7655310999835,158.27250999998068,,,343526,001,2023-08-06_12h32.25.698,magic_trick,2023.1.3,164.80546369382336,
73,0,73,0,,,,,,,,,,,,,,,,,,,,,,,,,,,158.77143449999858,,,,343526,001,2023-08-06_12h32.25.698,magic_trick,2023.1.3,164.80546369382336,
74,0,74,0,,,,,,,,,,,,,,,,,,,,,,,,,,,160.7711377000087,,,,343526,001,2023-08-06_12h32.25.698,magic_trick,2023.1.3,164.80546369382336,
75,0,75,0,,,,,,,,,,,,,,,,,,,,,,,,,,,162.7709094999591,,,,343526,001,2023-08-06_12h32.25.698,magic_trick,2023.1.3,164.80546369382336,
76,0,76,0,,,,,,,,,,,,,,,,,,,,,,,,,,,164.77070980001008,,,,343526,001,2023-08-06_12h32.25.698,magic_trick,2023.1.3,164.80546369382336,
77,0,77,0,,,,,,,,,,,,,,,,,,,,,,,,,,,166.77044160000514,,,,343526,001,2023-08-06_12h32.25.698,magic_trick,2023.1.3,164.80546369382336,
78,0,78,0,,,,,,,,,,,,,,,,,,,,,,,,,,,168.77028369996697,,,,343526,001,2023-08-06_12h32.25.698,magic_trick,2023.1.3,164.80546369382336,
79,0,79,0,,,,,,,,,,,,,,,,,,,,,,,,,,,170.77005039999494,,,,343526,001,2023-08-06_12h32.25.698,magic_trick,2023.1.3,164.80546369382336,
80,0,80,0,,,,,,,,,,,,,,,,,,,,,,,,,,,172.76984149997588,,,,343526,001,2023-08-06_12h32.25.698,magic_trick,2023.1.3,164.80546369382336,
81,0,81,0,,,,,,,,,,,,,,,,,,,,,,,,,,,174.76969819999067,,,,343526,001,2023-08-06_12h32.25.698,magic_trick,2023.1.3,164.80546369382336,
82,0,82,0,,,,,,,,,,,,,,,,,,,,,,,,,,,176.76943659997778,178.2759023999679,,,343526,001,2023-08-06_12h32.25.698,magic_trick,2023.1.3,164.80546369382336,
83,0,83,0,,,,,,,,,,,,,,,,,,,,,,,,,,,178.76923490001354,180.27628049999475,,,343526,001,2023-08-06_12h32.25.698,magic_trick,2023.1.3,164.80546369382336,
84,0,84,0,,,,,,,,,,,,,,,,,,,,,,,,,,,180.76906680001412,182.27880119998008,,,343526,001,2023-08-06_12h32.25.698,magic_trick,2023.1.3,164.80546369382336,
85,0,85,0,,,,,,,,,,,,,,,,,,,,,,,,,,,182.76892160001444,184.27611779997824,,,343526,001,2023-08-06_12h32.25.698,magic_trick,2023.1.3,164.80546369382336,
86,0,86,0,,,,,,,,,,,,,,,,,,,,,,,,,,,184.76867499999935,186.2750174999819,,,343526,001,2023-08-06_12h32.25.698,magic_trick,2023.1.3,164.80546369382336,
87,0,87,0,,,,,,,,,,,,,,,,,,,,,,,,,,,186.7684486999642,188.27578480000375,,,343526,001,2023-08-06_12h32.25.698,magic_trick,2023.1.3,164.80546369382336,
88,0,88,0,,,,,,,,,,,,,,,,,,,,,,,,,,,188.76836330001242,190.27466449997155,,,343526,001,2023-08-06_12h32.25.698,magic_trick,2023.1.3,164.80546369382336,
89,0,89,0,,,,,,,,,,,,,,,,,,,,,,,,,,,190.76818349998211,192.27578149997862,,,343526,001,2023-08-06_12h32.25.698,magic_trick,2023.1.3,164.80546369382336,
90,0,90,0,,,,,,,,,,,,,,,,,,,,,,,,,,,192.76786620001076,194.27385050000157,,,343526,001,2023-08-06_12h32.25.698,magic_trick,2023.1.3,164.80546369382336,
91,0,91,0,,,,,,,,,,,,,,,,,,,,,,,,,,,194.76768349995837,196.27549159998307,,,343526,001,2023-08-06_12h32.25.698,magic_trick,2023.1.3,164.80546369382336,
92,0,92,0,,,,,,,,,,,,,,,,,,,,,,,,,,,196.7674859999679,198.27596749999793,,,343526,001,2023-08-06_12h32.25.698,magic_trick,2023.1.3,164.80546369382336,
93,0,93,0,,,,,,,,,,,,,,,,,,,,,,,,,,,198.76725849998184,200.27526429999853,,,343526,001,2023-08-06_12h32.25.698,magic_trick,2023.1.3,164.80546369382336,
94,0,94,0,,,,,,,,,,,,,,,,,,,,,,,,,,,200.7670708000078,202.2750402999809,,,343526,001,2023-08-06_12h32.25.698,magic_trick,2023.1.3,164.80546369382336,
95,0,95,0,,,,,,,,,,,,,,,,,,,,,,,,,,,202.76685650000582,204.2760844999575,,,343526,001,2023-08-06_12h32.25.698,magic_trick,2023.1.3,164.80546369382336,
96,0,96,0,,,,,,,,,,,,,,,,,,,,,,,,,,,204.76666540000588,206.27596130000893,,,343526,001,2023-08-06_12h32.25.698,magic_trick,2023.1.3,164.80546369382336,
97,0,97,0,,,,,,,,,,,,,,,,,,,,,,,,,,,206.76647789997514,208.27352839999367,,,343526,001,2023-08-06_12h32.25.698,magic_trick,2023.1.3,164.80546369382336,
98,0,98,0,,,,,,,,,,,,,,,,,,,,,,,,,,,208.76619319996098,210.27407639997546,,,343526,001,2023-08-06_12h32.25.698,magic_trick,2023.1.3,164.80546369382336,
99,0,99,0,,,,,,,,,,,,,,,,,,,,,,,,,,,210.76609619997907,212.27358360000653,,,343526,001,2023-08-06_12h32.25.698,magic_trick,2023.1.3,164.80546369382336,
100,0,100,0,,,,,,,,,,,,,,,,,,,,,,,,,,,212.76587249996373,214.27328049996868,,,343526,001,2023-08-06_12h32.25.698,magic_trick,2023.1.3,164.80546369382336,
101,0,101,0,,,,,,,,,,,,,,,,,,,,,,,,,,,214.76570839999476,216.27362849999918,,,343526,001,2023-08-06_12h32.25.698,magic_trick,2023.1.3,164.80546369382336,
102,0,102,0,,,,,,,,,,,,,,,,,,,,,,,,,,,216.7714015999809,,,,343526,001,2023-08-06_12h32.25.698,magic_trick,2023.1.3,164.80546369382336,
103,0,103,0,,,,,,,,,,,,,,,,,,,,,,,,,,,218.77123640000354,,,,343526,001,2023-08-06_12h32.25.698,magic_trick,2023.1.3,164.80546369382336,
104,0,104,0,,,,,,,,,,,,,,,,,,,,,,,,,,,220.7710439999937,,,,343526,001,2023-08-06_12h32.25.698,magic_trick,2023.1.3,164.80546369382336,
105,0,105,0,,,,,,,,,,,,,,,,,,,,,,,,,,,222.77090269996552,,,,343526,001,2023-08-06_12h32.25.698,magic_trick,2023.1.3,164.80546369382336,
106,0,106,0,,,,,,,,,,,,,,,,,,,,,,,,,,,224.7706496999599,,,,343526,001,2023-08-06_12h32.25.698,magic_trick,2023.1.3,164.80546369382336,
107,0,107,0,,,,,,,,,,,,,,,,,,,,,,,,,,,226.77045089995954,,,,343526,001,2023-08-06_12h32.25.698,magic_trick,2023.1.3,164.80546369382336,
108,0,108,0,,,,,,,,,,,,,,,,,,,,,,,,,,,228.77027699997416,,,,343526,001,2023-08-06_12h32.25.698,magic_trick,2023.1.3,164.80546369382336,
109,0,109,0,,,,,,,,,,,,,,,,,,,,,,,,,,,230.77000719995704,,,,343526,001,2023-08-06_12h32.25.698,magic_trick,2023.1.3,164.80546369382336,
110,0,110,0,,,,,,,,,,,,,,,,,,,,,,,,,,,232.7697795999702,,,,343526,001,2023-08-06_12h32.25.698,magic_trick,2023.1.3,164.80546369382336,
111,0,111,0,,,,,,,,,,,,,,,,,,,,,,,,,,,234.76961369998753,,,,343526,001,2023-08-06_12h32.25.698,magic_trick,2023.1.3,164.80546369382336,
112,0,112,0,,,,,,,,,,,,,,,,,,,,,,,,,,,236.7693941000034,238.27622199995676,,,343526,001,2023-08-06_12h32.25.698,magic_trick,2023.1.3,164.80546369382336,
113,0,113,0,,,,,,,,,,,,,,,,,,,,,,,,,,,238.76921749999747,240.27644499996677,,,343526,001,2023-08-06_12h32.25.698,magic_trick,2023.1.3,164.80546369382336,
114,0,114,0,,,,,,,,,,,,,,,,,,,,,,,,,,,240.76905810000608,242.27491899998859,,,343526,001,2023-08-06_12h32.25.698,magic_trick,2023.1.3,164.80546369382336,
115,0,115,0,,,,,,,,,,,,,,,,,,,,,,,,,,,242.76894539996283,244.27643470000476,,,343526,001,2023-08-06_12h32.25.698,magic_trick,2023.1.3,164.80546369382336,
116,0,116,0,,,,,,,,,,,,,,,,,,,,,,,,,,,244.7685926000122,246.2760935999686,,,343526,001,2023-08-06_12h32.25.698,magic_trick,2023.1.3,164.80546369382336,
117,0,117,0,,,,,,,,,,,,,,,,,,,,,,,,,,,246.76841289998265,248.2755701999995,,,343526,001,2023-08-06_12h32.25.698,magic_trick,2023.1.3,164.80546369382336,
118,0,118,0,,,,,,,,,,,,,,,,,,,,,,,,,,,248.76823489996605,250.27598219999345,,,343526,001,2023-08-06_12h32.25.698,magic_trick,2023.1.3,164.80546369382336,
119,0,119,0,,,,,,,,,,,,,,,,,,,,,,,,,,,250.7680502999574,252.27560599998105,,,343526,001,2023-08-06_12h32.25.698,magic_trick,2023.1.3,164.80546369382336,
120,0,120,0,,,,,,,,,,,,,,,,,,,,,,,,,,,252.76792579999892,254.2750578999985,,,343526,001,2023-08-06_12h32.25.698,magic_trick,2023.1.3,164.80546369382336,
121,0,121,0,,,,,,,,,,,,,,,,,,,,,,,,,,,254.7676080999663,256.2800131000113,,,343526,001,2023-08-06_12h32.25.698,magic_trick,2023.1.3,164.80546369382336,
122,0,122,0,,,,,,,,,,,,,,,,,,,,,,,,,,,256.7675340999849,258.27436360000866,,,343526,001,2023-08-06_12h32.25.698,magic_trick,2023.1.3,164.80546369382336,
123,0,123,0,,,,,,,,,,,,,,,,,,,,,,,,,,,258.7671961999731,260.27422159997514,,,343526,001,2023-08-06_12h32.25.698,magic_trick,2023.1.3,164.80546369382336,
124,0,124,0,,,,,,,,,,,,,,,,,,,,,,,,,,,260.76696009997977,262.2732723999652,,,343526,001,2023-08-06_12h32.25.698,magic_trick,2023.1.3,164.80546369382336,
125,0,125,0,,,,,,,,,,,,,,,,,,,,,,,,,,,262.76680929999566,264.27373149996856,,,343526,001,2023-08-06_12h32.25.698,magic_trick,2023.1.3,164.80546369382336,
126,0,126,0,,,,,,,,,,,,,,,,,,,,,,,,,,,264.7667664999608,266.274289199966,,,343526,001,2023-08-06_12h32.25.698,magic_trick,2023.1.3,164.80546369382336,
127,0,127,0,,,,,,,,,,,,,,,,,,,,,,,,,,,266.76643799996236,268.27405929996166,,,343526,001,2023-08-06_12h32.25.698,magic_trick,2023.1.3,164.80546369382336,
128,0,128,0,,,,,,,,,,,,,,,,,,,,,,,,,,,268.7662927999627,270.27352330001304,,,343526,001,2023-08-06_12h32.25.698,magic_trick,2023.1.3,164.80546369382336,
129,0,129,0,,,,,,,,,,,,,,,,,,,,,,,,,,,270.76606880000327,272.27289510000264,,,343526,001,2023-08-06_12h32.25.698,magic_trick,2023.1.3,164.80546369382336,
130,0,130,0,,,,,,,,,,,,,,,,,,,,,,,,,,,272.76588179997634,274.2726100999862,,,343526,001,2023-08-06_12h32.25.698,magic_trick,2023.1.3,164.80546369382336,
131,0,131,0,,,,,,,,,,,,,,,,,,,,,,,,,,,274.7657160999952,276.27143349999096,,,343526,001,2023-08-06_12h32.25.698,magic_trick,2023.1.3,164.80546369382336,
132,0,132,0,,,,,,,,,,,,,,,,,,,,,,,,,,,276.77141029998893,,,,343526,001,2023-08-06_12h32.25.698,magic_trick,2023.1.3,164.80546369382336,
133,0,133,0,,,,,,,,,,,,,,,,,,,,,,,,,,,278.77120329998434,,,,343526,001,2023-08-06_12h32.25.698,magic_trick,2023.1.3,164.80546369382336,
134,0,134,0,,,,,,,,,,,,,,,,,,,,,,,,,,,280.77096110000275,,,,343526,001,2023-08-06_12h32.25.698,magic_trick,2023.1.3,164.80546369382336,
135,0,135,0,,,,,,,,,,,,,,,,,,,,,,,,,,,282.77080790000036,,,,343526,001,2023-08-06_12h32.25.698,magic_trick,2023.1.3,164.80546369382336,
136,0,136,0,,,,,,,,,,,,,,,,,,,,,,,,,,,284.7706479000044,,,,343526,001,2023-08-06_12h32.25.698,magic_trick,2023.1.3,164.80546369382336,
137,0,137,0,,,,,,,,,,,,,,,,,,,,,,,,,,,286.7704155999818,,,,343526,001,2023-08-06_12h32.25.698,magic_trick,2023.1.3,164.80546369382336,
138,0,138,0,,,,,,,,,,,,,,,,,,,,,,,,,,,288.7701903000125,,,,343526,001,2023-08-06_12h32.25.698,magic_trick,2023.1.3,164.80546369382336,
139,0,139,0,,,,,,,,,,,,,,,,,,,,,,,,,,,290.77009899995755,,,,343526,001,2023-08-06_12h32.25.698,magic_trick,2023.1.3,164.80546369382336,
140,0,140,0,,,,,,,,,,,,,,,,,,,,,,,,,,,292.76978799997596,,,,343526,001,2023-08-06_12h32.25.698,magic_trick,2023.1.3,164.80546369382336,
141,0,141,0,,,,,,,,,,,,,,,,,,,,,,,,,,,294.76955209998414,,,,343526,001,2023-08-06_12h32.25.698,magic_trick,2023.1.3,164.80546369382336,
142,0,142,0,,,,,,,,,,,,,,,,,,,,,,,,,,,296.76952589995926,298.27623269998,,,343526,001,2023-08-06_12h32.25.698,magic_trick,2023.1.3,164.80546369382336,
143,0,143,0,,,,,,,,,,,,,,,,,,,,,,,,,,,298.7693167999969,300.27665309997974,,,343526,001,2023-08-06_12h32.25.698,magic_trick,2023.1.3,164.80546369382336,
144,0,144,0,,,,,,,,,,,,,,,,,,,,,,,,,,,300.76900639996165,302.27484999998705,,,343526,001,2023-08-06_12h32.25.698,magic_trick,2023.1.3,164.80546369382336,
145,0,145,0,,,,,,,,,,,,,,,,,,,,,,,,,,,302.7688124999986,304.2763928999775,,,343526,001,2023-08-06_12h32.25.698,magic_trick,2023.1.3,164.80546369382336,
146,0,146,0,,,,,,,,,,,,,,,,,,,,,,,,,,,304.7685796999722,306.2767736999667,,,343526,001,2023-08-06_12h32.25.698,magic_trick,2023.1.3,164.80546369382336,
147,0,147,0,,,,,,,,,,,,,,,,,,,,,,,,,,,306.76839949999703,,,,343526,001,2023-08-06_12h32.25.698,magic_trick,2023.1.3,164.80546369382336,
148,0,148,0,,,,,,,,,,,,,,,,,,,,,,,,,,,308.7682654999662,,,,343526,001,2023-08-06_12h32.25.698,magic_trick,2023.1.3,164.80546369382336,
149,0,149,0,,,,,,,,,,,,,,,,,,,,,,,,,,,310.7680662999628,,,,343526,001,2023-08-06_12h32.25.698,magic_trick,2023.1.3,164.80546369382336,
150,0,150,0,,,,,,,,,,,,,,,,,,,,,,,,,,,312.7677524999599,314.27456669998355,,,343526,001,2023-08-06_12h32.25.698,magic_trick,2023.1.3,164.80546369382336,
151,0,151,0,,,,,,,,,,,,,,,,,,,,,,,,,,,314.767574700003,316.27475009998307,,,343526,001,2023-08-06_12h32.25.698,magic_trick,2023.1.3,164.80546369382336,
152,0,152,0,,,,,,,,,,,,,,,,,,,,,,,,,,,316.767332599964,318.2748541999608,,,343526,001,2023-08-06_12h32.25.698,magic_trick,2023.1.3,164.80546369382336,
153,0,153,0,,,,,,,,,,,,,,,,,,,,,,,,,,,318.7672906999942,320.27390049997484,,,343526,001,2023-08-06_12h32.25.698,magic_trick,2023.1.3,164.80546369382336,
154,0,154,0,,,,,,,,,,,,,,,,,,,,,,,,,,,320.7670485000126,322.2746733999811,,,343526,001,2023-08-06_12h32.25.698,magic_trick,2023.1.3,164.80546369382336,
155,0,155,0,,,,,,,,,,,,,,,,,,,,,,,,,,,322.7668360999669,324.273720600002,,,343526,001,2023-08-06_12h32.25.698,magic_trick,2023.1.3,164.80546369382336,
156,0,156,0,,,,,,,,,,,,,,,,,,,,,,,,,,,324.76676769996993,326.27372529997956,,,343526,001,2023-08-06_12h32.25.698,magic_trick,2023.1.3,164.80546369382336,
157,0,157,0,,,,,,,,,,,,,,,,,,,,,,,,,,,326.7664372000145,328.273649699986,,,343526,001,2023-08-06_12h32.25.698,magic_trick,2023.1.3,164.80546369382336,
158,0,158,0,,,,,,,,,,,,,,,,,,,,,,,,,,,328.76625669997884,330.27222499996424,,,343526,001,2023-08-06_12h32.25.698,magic_trick,2023.1.3,164.80546369382336,
159,0,159,0,,,,,,,,,,,,,,,,,,,,,,,,,,,330.76626629999373,332.2733087000088,,,343526,001,2023-08-06_12h32.25.698,magic_trick,2023.1.3,164.80546369382336,
160,0,160,0,,,,,,,,,,,,,,,,,,,,,,,,,,,332.76622310001403,334.27312869997695,,,343526,001,2023-08-06_12h32.25.698,magic_trick,2023.1.3,164.80546369382336,
161,0,161,0,,,,,,,,,,,,,,,,,,,,,,,,,,,334.7670893999748,336.27255930000683,,,343526,001,2023-08-06_12h32.25.698,magic_trick,2023.1.3,164.80546369382336,
162,0,162,0,,,,,,,,,,,,,,,,,,,,,,,,,,,336.77137450000737,,,,343526,001,2023-08-06_12h32.25.698,magic_trick,2023.1.3,164.80546369382336,
163,0,163,0,,,,,,,,,,,,,,,,,,,,,,,,,,,338.77117459999863,,,,343526,001,2023-08-06_12h32.25.698,magic_trick,2023.1.3,164.80546369382336,
164,0,164,0,,,,,,,,,,,,,,,,,,,,,,,,,,,340.77093759999843,,,,343526,001,2023-08-06_12h32.25.698,magic_trick,2023.1.3,164.80546369382336,
165,0,165,0,,,,,,,,,,,,,,,,,,,,,,,,,,,342.7708031999646,,,,343526,001,2023-08-06_12h32.25.698,magic_trick,2023.1.3,164.80546369382336,
166,0,166,0,,,,,,,,,,,,,,,,,,,,,,,,,,,344.77054319996387,,,,343526,001,2023-08-06_12h32.25.698,magic_trick,2023.1.3,164.80546369382336,
167,0,167,0,,,,,,,,,,,,,,,,,,,,,,,,,,,346.77036829997087,,,,343526,001,2023-08-06_12h32.25.698,magic_trick,2023.1.3,164.80546369382336,
168,0,168,0,,,,,,,,,,,,,,,,,,,,,,,,,,,348.77015589998337,,,,343526,001,2023-08-06_12h32.25.698,magic_trick,2023.1.3,164.80546369382336,
169,0,169,0,,,,,,,,,,,,,,,,,,,,,,,,,,,350.77005499997176,,,,343526,001,2023-08-06_12h32.25.698,magic_trick,2023.1.3,164.80546369382336,
170,0,170,0,,,,,,,,,,,,,,,,,,,,,,,,,,,352.76978229999077,,,,343526,001,2023-08-06_12h32.25.698,magic_trick,2023.1.3,164.80546369382336,
171,0,171,0,,,,,,,,,,,,,,,,,,,,,,,,,,,354.7695462999982,,,,343526,001,2023-08-06_12h32.25.698,magic_trick,2023.1.3,164.80546369382336,
172,0,172,0,,,,,,,,,,,,,,,,,,,,,,,,,,,356.7694176000077,,,,343526,001,2023-08-06_12h32.25.698,magic_trick,2023.1.3,164.80546369382336,
173,0,173,0,,,,,,,,,,,,,,,,,,,,,,,,,,,358.76916989998426,,,,343526,001,2023-08-06_12h32.25.698,magic_trick,2023.1.3,164.80546369382336,
174,0,174,0,,,,,,,,,,,,,,,,,,,,,,,,,,,360.7690065999632,,,,343526,001,2023-08-06_12h32.25.698,magic_trick,2023.1.3,164.80546369382336,
175,0,175,0,,,,,,,,,,,,,,,,,,,,,,,,,,,362.7688366000075,,,,343526,001,2023-08-06_12h32.25.698,magic_trick,2023.1.3,164.80546369382336,
176,0,176,0,,,,,,,,,,,,,,,,,,,,,,,,,,,364.76851299998816,,,,343526,001,2023-08-06_12h32.25.698,magic_trick,2023.1.3,164.80546369382336,
177,0,177,0,,,,,,,,,,,,,,,,,,,,,,,,,,,366.7683055999805,,,,343526,001,2023-08-06_12h32.25.698,magic_trick,2023.1.3,164.80546369382336,
178,0,178,0,,,,,,,,,,,,,,,,,,,,,,,,,,,368.76815630000783,370.27544840000337,,,343526,001,2023-08-06_12h32.25.698,magic_trick,2023.1.3,164.80546369382336,
179,0,179,0,,,,,,,,,,,,,,,,,,,,,,,,,,,370.76795469998615,372.2708375999937,,,343526,001,2023-08-06_12h32.25.698,magic_trick,2023.1.3,164.80546369382336,
,,,,,,,,,,,,,,,,,,,,,,,,,,,,,,,,372.2708375999937,372.2708375999937,,,,,,,
