trials.thisRepN,trials.thisTrialN,trials.thisN,trials.thisIndex,text_2.started,key_resp.started,key_resp.keys,key_resp.rt,key_resp.duration,key_resp_2.started,text_3.started,card_1.started,card_2.started,card_3.started,card_4.started,card_5.started,card_6.started,card_7.started,card_8.started,card_9.started,key_resp_2.keys,key_resp_2.rt,key_resp_2.duration,text.started,key_resp_3.started,key_resp_3.keys,key_resp_3.rt,key_resp_3.duration,text_4.started,polygon_2.started,text_4.stopped,polygon_2.stopped,a_card.started,a_card.stopped,text_5.started,key_resp_4.started,key_resp_4.keys,key_resp_4.rt,key_resp_4.duration,participant,session,date,expName,psychopyVersion,frameRate,
,,,,12.663239700021222,12.663239700021222,space,67.6185603000049,None,,,,,,,,,,,,,,,,,,,,,,,,,,,,,,,344943,001,2023-08-04_15h36.02.555,magic_trick,2023.1.3,165.08378824208768,
,,,,,,,,,80.43951809999999,80.43951809999999,80.43951809999999,80.43951809999999,80.43951809999999,80.43951809999999,80.43951809999999,80.43951809999999,80.43951809999999,80.43951809999999,80.43951809999999,space,16.229143700009445,None,,,,,,,,,,,,,,,,,344943,001,2023-08-04_15h36.02.555,magic_trick,2023.1.3,165.08378824208768,
,,,,,,,,,,,,,,,,,,,,,,,96.67589980000048,96.67589980000048,space,30.981165200006217,None,,,,,,,,,,,,344943,001,2023-08-04_15h36.02.555,magic_trick,2023.1.3,165.08378824208768,
0,0,0,0,,,,,,,,,,,,,,,,,,,,,,,,,127.66686570001184,127.66686570001184,128.68070460000308,128.68070460000308,129.1626933000225,130.6704153000028,,,,,,344943,001,2023-08-04_15h36.02.555,magic_trick,2023.1.3,165.08378824208768,
1,0,1,0,,,,,,,,,,,,,,,,,,,,,,,,,,,,,131.16277470000205,132.67038460000185,,,,,,344943,001,2023-08-04_15h36.02.555,magic_trick,2023.1.3,165.08378824208768,
2,0,2,0,,,,,,,,,,,,,,,,,,,,,,,,,,,,,133.16270509999595,134.6683752000099,,,,,,344943,001,2023-08-04_15h36.02.555,magic_trick,2023.1.3,165.08378824208768,
3,0,3,0,,,,,,,,,,,,,,,,,,,,,,,,,,,,,135.16246429999592,136.67014060000656,,,,,,344943,001,2023-08-04_15h36.02.555,magic_trick,2023.1.3,165.08378824208768,
4,0,4,0,,,,,,,,,,,,,,,,,,,,,,,,,,,,,137.16224770000554,138.6647484000132,,,,,,344943,001,2023-08-04_15h36.02.555,magic_trick,2023.1.3,165.08378824208768,
5,0,5,0,,,,,,,,,,,,,,,,,,,,,,,,,,,,,139.16201010000077,140.67040250002174,,,,,,344943,001,2023-08-04_15h36.02.555,magic_trick,2023.1.3,165.08378824208768,
6,0,6,0,,,,,,,,,,,,,,,,,,,,,,,,,,,,,141.16184190000058,142.666148600023,,,,,,344943,001,2023-08-04_15h36.02.555,magic_trick,2023.1.3,165.08378824208768,
7,0,7,0,,,,,,,,,,,,,,,,,,,,,,,,,,,,,143.16163630000665,144.67021620000014,,,,,,344943,001,2023-08-04_15h36.02.555,magic_trick,2023.1.3,165.08378824208768,
8,0,8,0,,,,,,,,,,,,,,,,,,,,,,,,,,,,,145.1612970000133,146.66740620002383,,,,,,344943,001,2023-08-04_15h36.02.555,magic_trick,2023.1.3,165.08378824208768,
9,0,9,0,,,,,,,,,,,,,,,,,,,,,,,,,,,,,147.1611751000164,148.66708490002202,,,,,,344943,001,2023-08-04_15h36.02.555,magic_trick,2023.1.3,165.08378824208768,
10,0,10,0,,,,,,,,,,,,,,,,,,,,,,,,,,,,,149.16096750000725,150.6667354000092,,,,,,344943,001,2023-08-04_15h36.02.555,magic_trick,2023.1.3,165.08378824208768,
11,0,11,0,,,,,,,,,,,,,,,,,,,,,,,,,,,,,151.16075480001746,152.6706468000193,,,,,,344943,001,2023-08-04_15h36.02.555,magic_trick,2023.1.3,165.08378824208768,
12,0,12,0,,,,,,,,,,,,,,,,,,,,,,,,,,,,,153.1606221999973,154.6621019000013,,,,,,344943,001,2023-08-04_15h36.02.555,magic_trick,2023.1.3,165.08378824208768,
13,0,13,0,,,,,,,,,,,,,,,,,,,,,,,,,,,,,155.160337600013,156.66545820000465,,,,,,344943,001,2023-08-04_15h36.02.555,magic_trick,2023.1.3,165.08378824208768,
14,0,14,0,,,,,,,,,,,,,,,,,,,,,,,,,,,,,157.16013390000444,158.6663150000095,,,,,,344943,001,2023-08-04_15h36.02.555,magic_trick,2023.1.3,165.08378824208768,
15,0,15,0,,,,,,,,,,,,,,,,,,,,,,,,,,,,,159.1599622000067,160.66621160000795,,,,,,344943,001,2023-08-04_15h36.02.555,magic_trick,2023.1.3,165.08378824208768,
16,0,16,0,,,,,,,,,,,,,,,,,,,,,,,,,,,,,161.1597776999988,162.66567090002354,,,,,,344943,001,2023-08-04_15h36.02.555,magic_trick,2023.1.3,165.08378824208768,
17,0,17,0,,,,,,,,,,,,,,,,,,,,,,,,,,,,,163.15954160000547,164.6656123000139,,,,,,344943,001,2023-08-04_15h36.02.555,magic_trick,2023.1.3,165.08378824208768,
18,0,18,0,,,,,,,,,,,,,,,,,,,,,,,,,,,,,165.16544510002132,,,,,,,344943,001,2023-08-04_15h36.02.555,magic_trick,2023.1.3,165.08378824208768,
19,0,19,0,,,,,,,,,,,,,,,,,,,,,,,,,,,,,167.16559380001854,,,,,,,344943,001,2023-08-04_15h36.02.555,magic_trick,2023.1.3,165.08378824208768,
20,0,20,0,,,,,,,,,,,,,,,,,,,,,,,,,,,,,169.16498319999664,,,,,,,344943,001,2023-08-04_15h36.02.555,magic_trick,2023.1.3,165.08378824208768,
21,0,21,0,,,,,,,,,,,,,,,,,,,,,,,,,,,,,171.15870369999902,172.66389500000514,,,,,,344943,001,2023-08-04_15h36.02.555,magic_trick,2023.1.3,165.08378824208768,
22,0,22,0,,,,,,,,,,,,,,,,,,,,,,,,,,,,,173.1647417000204,,,,,,,344943,001,2023-08-04_15h36.02.555,magic_trick,2023.1.3,165.08378824208768,
23,0,23,0,,,,,,,,,,,,,,,,,,,,,,,,,,,,,175.1644242000184,176.67076370000723,,,,,,344943,001,2023-08-04_15h36.02.555,magic_trick,2023.1.3,165.08378824208768,
24,0,24,0,,,,,,,,,,,,,,,,,,,,,,,,,,,,,177.16419660000247,178.67091420001816,,,,,,344943,001,2023-08-04_15h36.02.555,magic_trick,2023.1.3,165.08378824208768,
25,0,25,0,,,,,,,,,,,,,,,,,,,,,,,,,,,,,179.16406720000668,180.6714525000134,,,,,,344943,001,2023-08-04_15h36.02.555,magic_trick,2023.1.3,165.08378824208768,
26,0,26,0,,,,,,,,,,,,,,,,,,,,,,,,,,,,,181.1638087000174,182.67092230002163,,,,,,344943,001,2023-08-04_15h36.02.555,magic_trick,2023.1.3,165.08378824208768,
27,0,27,0,,,,,,,,,,,,,,,,,,,,,,,,,,,,,183.16356220000307,184.67103710002266,,,,,,344943,001,2023-08-04_15h36.02.555,magic_trick,2023.1.3,165.08378824208768,
28,0,28,0,,,,,,,,,,,,,,,,,,,,,,,,,,,,,185.16346480001812,186.66896490001818,,,,,,344943,001,2023-08-04_15h36.02.555,magic_trick,2023.1.3,165.08378824208768,
29,0,29,0,,,,,,,,,,,,,,,,,,,,,,,,,,,,,187.16321009999956,188.6705925000133,,,,,,344943,001,2023-08-04_15h36.02.555,magic_trick,2023.1.3,165.08378824208768,
30,0,30,0,,,,,,,,,,,,,,,,,,,,,,,,,,,,,189.16295369999716,190.67065980000189,,,,,,344943,001,2023-08-04_15h36.02.555,magic_trick,2023.1.3,165.08378824208768,
31,0,31,0,,,,,,,,,,,,,,,,,,,,,,,,,,,,,191.1627955000149,192.66865170001984,,,,,,344943,001,2023-08-04_15h36.02.555,magic_trick,2023.1.3,165.08378824208768,
32,0,32,0,,,,,,,,,,,,,,,,,,,,,,,,,,,,,193.1626320000214,194.66867850002018,,,,,,344943,001,2023-08-04_15h36.02.555,magic_trick,2023.1.3,165.08378824208768,
33,0,33,0,,,,,,,,,,,,,,,,,,,,,,,,,,,,,195.16236869999557,196.66817530000117,,,,,,344943,001,2023-08-04_15h36.02.555,magic_trick,2023.1.3,165.08378824208768,
34,0,34,0,,,,,,,,,,,,,,,,,,,,,,,,,,,,,197.16214210001635,198.6681170000229,,,,,,344943,001,2023-08-04_15h36.02.555,magic_trick,2023.1.3,165.08378824208768,
35,0,35,0,,,,,,,,,,,,,,,,,,,,,,,,,,,,,199.1619244000176,200.66400620000786,,,,,,344943,001,2023-08-04_15h36.02.555,magic_trick,2023.1.3,165.08378824208768,
36,0,36,0,,,,,,,,,,,,,,,,,,,,,,,,,,,,,201.16205470002024,202.66777920001186,,,,,,344943,001,2023-08-04_15h36.02.555,magic_trick,2023.1.3,165.08378824208768,
37,0,37,0,,,,,,,,,,,,,,,,,,,,,,,,,,,,,203.1615635000053,204.66701830000966,,,,,,344943,001,2023-08-04_15h36.02.555,magic_trick,2023.1.3,165.08378824208768,
38,0,38,0,,,,,,,,,,,,,,,,,,,,,,,,,,,,,205.16130249999696,206.6672412000189,,,,,,344943,001,2023-08-04_15h36.02.555,magic_trick,2023.1.3,165.08378824208768,
39,0,39,0,,,,,,,,,,,,,,,,,,,,,,,,,,,,,207.16113730001962,208.66700790001778,,,,,,344943,001,2023-08-04_15h36.02.555,magic_trick,2023.1.3,165.08378824208768,
40,0,40,0,,,,,,,,,,,,,,,,,,,,,,,,,,,,,209.16091619999497,210.6672029000183,,,,,,344943,001,2023-08-04_15h36.02.555,magic_trick,2023.1.3,165.08378824208768,
41,0,41,0,,,,,,,,,,,,,,,,,,,,,,,,,,,,,211.16068130001076,212.66688640002394,,,,,,344943,001,2023-08-04_15h36.02.555,magic_trick,2023.1.3,165.08378824208768,
42,0,42,0,,,,,,,,,,,,,,,,,,,,,,,,,,,,,213.16055630001938,214.66628440000932,,,,,,344943,001,2023-08-04_15h36.02.555,magic_trick,2023.1.3,165.08378824208768,
43,0,43,0,,,,,,,,,,,,,,,,,,,,,,,,,,,,,215.1602502000169,216.6659556000086,,,,,,344943,001,2023-08-04_15h36.02.555,magic_trick,2023.1.3,165.08378824208768,
44,0,44,0,,,,,,,,,,,,,,,,,,,,,,,,,,,,,217.16011930000968,218.66587580001215,,,,,,344943,001,2023-08-04_15h36.02.555,magic_trick,2023.1.3,165.08378824208768,
45,0,45,0,,,,,,,,,,,,,,,,,,,,,,,,,,,,,219.1599200000055,220.66612900001928,,,,,,344943,001,2023-08-04_15h36.02.555,magic_trick,2023.1.3,165.08378824208768,
46,0,46,0,,,,,,,,,,,,,,,,,,,,,,,,,,,,,221.15976150002098,222.66575529999682,,,,,,344943,001,2023-08-04_15h36.02.555,magic_trick,2023.1.3,165.08378824208768,
47,0,47,0,,,,,,,,,,,,,,,,,,,,,,,,,,,,,223.15955010001198,224.66548310001963,,,,,,344943,001,2023-08-04_15h36.02.555,magic_trick,2023.1.3,165.08378824208768,
48,0,48,0,,,,,,,,,,,,,,,,,,,,,,,,,,,,,225.1658185000124,,,,,,,344943,001,2023-08-04_15h36.02.555,magic_trick,2023.1.3,165.08378824208768,
49,0,49,0,,,,,,,,,,,,,,,,,,,,,,,,,,,,,227.16524270002265,,,,,,,344943,001,2023-08-04_15h36.02.555,magic_trick,2023.1.3,165.08378824208768,
50,0,50,0,,,,,,,,,,,,,,,,,,,,,,,,,,,,,229.16501340002287,,,,,,,344943,001,2023-08-04_15h36.02.555,magic_trick,2023.1.3,165.08378824208768,
51,0,51,0,,,,,,,,,,,,,,,,,,,,,,,,,,,,,231.1647792000149,,,,,,,344943,001,2023-08-04_15h36.02.555,magic_trick,2023.1.3,165.08378824208768,
52,0,52,0,,,,,,,,,,,,,,,,,,,,,,,,,,,,,233.15848080001888,234.6643643999996,,,,,,344943,001,2023-08-04_15h36.02.555,magic_trick,2023.1.3,165.08378824208768,
53,0,53,0,,,,,,,,,,,,,,,,,,,,,,,,,,,,,235.15826039999956,236.66429310000967,,,,,,344943,001,2023-08-04_15h36.02.555,magic_trick,2023.1.3,165.08378824208768,
54,0,54,0,,,,,,,,,,,,,,,,,,,,,,,,,,,,,237.1643180999963,238.6714944000123,,,,,,344943,001,2023-08-04_15h36.02.555,magic_trick,2023.1.3,165.08378824208768,
55,0,55,0,,,,,,,,,,,,,,,,,,,,,,,,,,,,,239.16390640000463,240.669472700014,,,,,,344943,001,2023-08-04_15h36.02.555,magic_trick,2023.1.3,165.08378824208768,
56,0,56,0,,,,,,,,,,,,,,,,,,,,,,,,,,,,,241.16381420000107,242.67138720001094,,,,,,344943,001,2023-08-04_15h36.02.555,magic_trick,2023.1.3,165.08378824208768,
57,0,57,0,,,,,,,,,,,,,,,,,,,,,,,,,,,,,243.16355820000172,244.67118170001777,,,,,,344943,001,2023-08-04_15h36.02.555,magic_trick,2023.1.3,165.08378824208768,
58,0,58,0,,,,,,,,,,,,,,,,,,,,,,,,,,,,,245.16336450001108,246.66866880000453,,,,,,344943,001,2023-08-04_15h36.02.555,magic_trick,2023.1.3,165.08378824208768,
59,0,59,0,,,,,,,,,,,,,,,,,,,,,,,,,,,,,247.1631350000098,248.67105240002275,,,,,,344943,001,2023-08-04_15h36.02.555,magic_trick,2023.1.3,165.08378824208768,
60,0,60,0,,,,,,,,,,,,,,,,,,,,,,,,,,,,,249.16294800001197,250.670792000019,,,,,,344943,001,2023-08-04_15h36.02.555,magic_trick,2023.1.3,165.08378824208768,
61,0,61,0,,,,,,,,,,,,,,,,,,,,,,,,,,,,,251.16275519999908,252.66812879999634,,,,,,344943,001,2023-08-04_15h36.02.555,magic_trick,2023.1.3,165.08378824208768,
62,0,62,0,,,,,,,,,,,,,,,,,,,,,,,,,,,,,253.16250840001157,254.66806670001824,,,,,,344943,001,2023-08-04_15h36.02.555,magic_trick,2023.1.3,165.08378824208768,
63,0,63,0,,,,,,,,,,,,,,,,,,,,,,,,,,,,,255.16227410000283,256.6679648999998,,,,,,344943,001,2023-08-04_15h36.02.555,magic_trick,2023.1.3,165.08378824208768,
64,0,64,0,,,,,,,,,,,,,,,,,,,,,,,,,,,,,257.1620910000056,258.6680527999997,,,,,,344943,001,2023-08-04_15h36.02.555,magic_trick,2023.1.3,165.08378824208768,
65,0,65,0,,,,,,,,,,,,,,,,,,,,,,,,,,,,,259.1618634000188,260.66808530001435,,,,,,344943,001,2023-08-04_15h36.02.555,magic_trick,2023.1.3,165.08378824208768,
66,0,66,0,,,,,,,,,,,,,,,,,,,,,,,,,,,,,261.1616775000002,262.6679729000025,,,,,,344943,001,2023-08-04_15h36.02.555,magic_trick,2023.1.3,165.08378824208768,
67,0,67,0,,,,,,,,,,,,,,,,,,,,,,,,,,,,,263.1614778000221,264.6670327000029,,,,,,344943,001,2023-08-04_15h36.02.555,magic_trick,2023.1.3,165.08378824208768,
68,0,68,0,,,,,,,,,,,,,,,,,,,,,,,,,,,,,265.16127609999967,266.6675824999984,,,,,,344943,001,2023-08-04_15h36.02.555,magic_trick,2023.1.3,165.08378824208768,
69,0,69,0,,,,,,,,,,,,,,,,,,,,,,,,,,,,,267.161190600018,268.6671424000233,,,,,,344943,001,2023-08-04_15h36.02.555,magic_trick,2023.1.3,165.08378824208768,
70,0,70,0,,,,,,,,,,,,,,,,,,,,,,,,,,,,,269.16086250002263,270.6677237999975,,,,,,344943,001,2023-08-04_15h36.02.555,magic_trick,2023.1.3,165.08378824208768,
71,0,71,0,,,,,,,,,,,,,,,,,,,,,,,,,,,,,271.1606967000116,272.6666397000081,,,,,,344943,001,2023-08-04_15h36.02.555,magic_trick,2023.1.3,165.08378824208768,
72,0,72,0,,,,,,,,,,,,,,,,,,,,,,,,,,,,,273.1605029000202,274.66687139999704,,,,,,344943,001,2023-08-04_15h36.02.555,magic_trick,2023.1.3,165.08378824208768,
73,0,73,0,,,,,,,,,,,,,,,,,,,,,,,,,,,,,275.1603195000207,276.6665506999998,,,,,,344943,001,2023-08-04_15h36.02.555,magic_trick,2023.1.3,165.08378824208768,
74,0,74,0,,,,,,,,,,,,,,,,,,,,,,,,,,,,,277.1601026999997,278.66630240000086,,,,,,344943,001,2023-08-04_15h36.02.555,magic_trick,2023.1.3,165.08378824208768,
75,0,75,0,,,,,,,,,,,,,,,,,,,,,,,,,,,,,279.15985700002057,280.666704400006,,,,,,344943,001,2023-08-04_15h36.02.555,magic_trick,2023.1.3,165.08378824208768,
76,0,76,0,,,,,,,,,,,,,,,,,,,,,,,,,,,,,281.15975510000135,282.6653351999994,,,,,,344943,001,2023-08-04_15h36.02.555,magic_trick,2023.1.3,165.08378824208768,
77,0,77,0,,,,,,,,,,,,,,,,,,,,,,,,,,,,,283.1594663000142,284.665333300014,,,,,,344943,001,2023-08-04_15h36.02.555,magic_trick,2023.1.3,165.08378824208768,
78,0,78,0,,,,,,,,,,,,,,,,,,,,,,,,,,,,,285.159240900015,286.6648423000006,,,,,,344943,001,2023-08-04_15h36.02.555,magic_trick,2023.1.3,165.08378824208768,
79,0,79,0,,,,,,,,,,,,,,,,,,,,,,,,,,,,,287.15903950002394,288.6653070000175,,,,,,344943,001,2023-08-04_15h36.02.555,magic_trick,2023.1.3,165.08378824208768,
80,0,80,0,,,,,,,,,,,,,,,,,,,,,,,,,,,,,289.1588303000026,290.66456170001766,,,,,,344943,001,2023-08-04_15h36.02.555,magic_trick,2023.1.3,165.08378824208768,
81,0,81,0,,,,,,,,,,,,,,,,,,,,,,,,,,,,,291.1647751000128,,,,,,,344943,001,2023-08-04_15h36.02.555,magic_trick,2023.1.3,165.08378824208768,
82,0,82,0,,,,,,,,,,,,,,,,,,,,,,,,,,,,,293.1645072000101,,,,,,,344943,001,2023-08-04_15h36.02.555,magic_trick,2023.1.3,165.08378824208768,
83,0,83,0,,,,,,,,,,,,,,,,,,,,,,,,,,,,,295.1642335000215,296.673366300005,,,,,,344943,001,2023-08-04_15h36.02.555,magic_trick,2023.1.3,165.08378824208768,
84,0,84,0,,,,,,,,,,,,,,,,,,,,,,,,,,,,,297.16407369999797,298.6699196000118,,,,,,344943,001,2023-08-04_15h36.02.555,magic_trick,2023.1.3,165.08378824208768,
85,0,85,0,,,,,,,,,,,,,,,,,,,,,,,,,,,,,299.1638329999987,300.6692569000006,,,,,,344943,001,2023-08-04_15h36.02.555,magic_trick,2023.1.3,165.08378824208768,
86,0,86,0,,,,,,,,,,,,,,,,,,,,,,,,,,,,,301.16368720002356,302.6686344000045,,,,,,344943,001,2023-08-04_15h36.02.555,magic_trick,2023.1.3,165.08378824208768,
87,0,87,0,,,,,,,,,,,,,,,,,,,,,,,,,,,,,303.16375040001003,304.669015499996,,,,,,344943,001,2023-08-04_15h36.02.555,magic_trick,2023.1.3,165.08378824208768,
88,0,88,0,,,,,,,,,,,,,,,,,,,,,,,,,,,,,305.163324299996,306.66904360000626,,,,,,344943,001,2023-08-04_15h36.02.555,magic_trick,2023.1.3,165.08378824208768,
89,0,89,0,,,,,,,,,,,,,,,,,,,,,,,,,,,,,307.16314990000683,308.6692101000226,,,,,,344943,001,2023-08-04_15h36.02.555,magic_trick,2023.1.3,165.08378824208768,
90,0,90,0,,,,,,,,,,,,,,,,,,,,,,,,,,,,,309.16288079999504,310.66832720002276,,,,,,344943,001,2023-08-04_15h36.02.555,magic_trick,2023.1.3,165.08378824208768,
91,0,91,0,,,,,,,,,,,,,,,,,,,,,,,,,,,,,311.16263390000677,312.668556300021,,,,,,344943,001,2023-08-04_15h36.02.555,magic_trick,2023.1.3,165.08378824208768,
92,0,92,0,,,,,,,,,,,,,,,,,,,,,,,,,,,,,313.162429500022,314.6681485000008,,,,,,344943,001,2023-08-04_15h36.02.555,magic_trick,2023.1.3,165.08378824208768,
93,0,93,0,,,,,,,,,,,,,,,,,,,,,,,,,,,,,315.1622137000086,316.6722795999958,,,,,,344943,001,2023-08-04_15h36.02.555,magic_trick,2023.1.3,165.08378824208768,
94,0,94,0,,,,,,,,,,,,,,,,,,,,,,,,,,,,,317.1620537000126,318.6677630000049,,,,,,344943,001,2023-08-04_15h36.02.555,magic_trick,2023.1.3,165.08378824208768,
95,0,95,0,,,,,,,,,,,,,,,,,,,,,,,,,,,,,319.16189350001514,320.66422100001364,,,,,,344943,001,2023-08-04_15h36.02.555,magic_trick,2023.1.3,165.08378824208768,
96,0,96,0,,,,,,,,,,,,,,,,,,,,,,,,,,,,,321.16164950001985,322.66693500001566,,,,,,344943,001,2023-08-04_15h36.02.555,magic_trick,2023.1.3,165.08378824208768,
97,0,97,0,,,,,,,,,,,,,,,,,,,,,,,,,,,,,323.1614142000035,324.66773270000704,,,,,,344943,001,2023-08-04_15h36.02.555,magic_trick,2023.1.3,165.08378824208768,
98,0,98,0,,,,,,,,,,,,,,,,,,,,,,,,,,,,,325.1612791000225,326.6671098000079,,,,,,344943,001,2023-08-04_15h36.02.555,magic_trick,2023.1.3,165.08378824208768,
99,0,99,0,,,,,,,,,,,,,,,,,,,,,,,,,,,,,327.16103660000954,328.66671800002223,,,,,,344943,001,2023-08-04_15h36.02.555,magic_trick,2023.1.3,165.08378824208768,
100,0,100,0,,,,,,,,,,,,,,,,,,,,,,,,,,,,,329.16080400001374,330.66705640000873,,,,,,344943,001,2023-08-04_15h36.02.555,magic_trick,2023.1.3,165.08378824208768,
101,0,101,0,,,,,,,,,,,,,,,,,,,,,,,,,,,,,331.1606227000011,332.66639560001204,,,,,,344943,001,2023-08-04_15h36.02.555,magic_trick,2023.1.3,165.08378824208768,
102,0,102,0,,,,,,,,,,,,,,,,,,,,,,,,,,,,,333.1605123000045,334.666549400019,,,,,,344943,001,2023-08-04_15h36.02.555,magic_trick,2023.1.3,165.08378824208768,
103,0,103,0,,,,,,,,,,,,,,,,,,,,,,,,,,,,,335.1602386000159,336.6665409000125,,,,,,344943,001,2023-08-04_15h36.02.555,magic_trick,2023.1.3,165.08378824208768,
104,0,104,0,,,,,,,,,,,,,,,,,,,,,,,,,,,,,337.1599725999986,338.6660164000059,,,,,,344943,001,2023-08-04_15h36.02.555,magic_trick,2023.1.3,165.08378824208768,
105,0,105,0,,,,,,,,,,,,,,,,,,,,,,,,,,,,,339.15980320001836,340.66612550002174,,,,,,344943,001,2023-08-04_15h36.02.555,magic_trick,2023.1.3,165.08378824208768,
106,0,106,0,,,,,,,,,,,,,,,,,,,,,,,,,,,,,341.1595602000016,342.66543210000964,,,,,,344943,001,2023-08-04_15h36.02.555,magic_trick,2023.1.3,165.08378824208768,
107,0,107,0,,,,,,,,,,,,,,,,,,,,,,,,,,,,,343.15942160002305,344.6655439000169,,,,,,344943,001,2023-08-04_15h36.02.555,magic_trick,2023.1.3,165.08378824208768,
108,0,108,0,,,,,,,,,,,,,,,,,,,,,,,,,,,,,345.1592227000219,346.66497850001906,,,,,,344943,001,2023-08-04_15h36.02.555,magic_trick,2023.1.3,165.08378824208768,
109,0,109,0,,,,,,,,,,,,,,,,,,,,,,,,,,,,,347.1650493000052,,,,,,,344943,001,2023-08-04_15h36.02.555,magic_trick,2023.1.3,165.08378824208768,
110,0,110,0,,,,,,,,,,,,,,,,,,,,,,,,,,,,,349.16479950002395,,,,,,,344943,001,2023-08-04_15h36.02.555,magic_trick,2023.1.3,165.08378824208768,
111,0,111,0,,,,,,,,,,,,,,,,,,,,,,,,,,,,,351.1646684000152,,,,,,,344943,001,2023-08-04_15h36.02.555,magic_trick,2023.1.3,165.08378824208768,
112,0,112,0,,,,,,,,,,,,,,,,,,,,,,,,,,,,,353.1644469000166,,,,,,,344943,001,2023-08-04_15h36.02.555,magic_trick,2023.1.3,165.08378824208768,
113,0,113,0,,,,,,,,,,,,,,,,,,,,,,,,,,,,,355.1642460000003,356.67225130001316,,,,,,344943,001,2023-08-04_15h36.02.555,magic_trick,2023.1.3,165.08378824208768,
114,0,114,0,,,,,,,,,,,,,,,,,,,,,,,,,,,,,357.16411589999916,358.6813925000024,,,,,,344943,001,2023-08-04_15h36.02.555,magic_trick,2023.1.3,165.08378824208768,
115,0,115,0,,,,,,,,,,,,,,,,,,,,,,,,,,,,,359.1637482000224,360.6696789000125,,,,,,344943,001,2023-08-04_15h36.02.555,magic_trick,2023.1.3,165.08378824208768,
116,0,116,0,,,,,,,,,,,,,,,,,,,,,,,,,,,,,361.1637751000235,362.66927340000984,,,,,,344943,001,2023-08-04_15h36.02.555,magic_trick,2023.1.3,165.08378824208768,
117,0,117,0,,,,,,,,,,,,,,,,,,,,,,,,,,,,,363.16349210002227,364.66927209999994,,,,,,344943,001,2023-08-04_15h36.02.555,magic_trick,2023.1.3,165.08378824208768,
118,0,118,0,,,,,,,,,,,,,,,,,,,,,,,,,,,,,365.1632618000149,366.6689047999971,,,,,,344943,001,2023-08-04_15h36.02.555,magic_trick,2023.1.3,165.08378824208768,
119,0,119,0,,,,,,,,,,,,,,,,,,,,,,,,,,,,,367.1631313000107,368.66889490000904,,,,,,344943,001,2023-08-04_15h36.02.555,magic_trick,2023.1.3,165.08378824208768,
120,0,120,0,,,,,,,,,,,,,,,,,,,,,,,,,,,,,369.16288129999884,370.673661000008,,,,,,344943,001,2023-08-04_15h36.02.555,magic_trick,2023.1.3,165.08378824208768,
121,0,121,0,,,,,,,,,,,,,,,,,,,,,,,,,,,,,371.1629710000125,372.66831320000347,,,,,,344943,001,2023-08-04_15h36.02.555,magic_trick,2023.1.3,165.08378824208768,
122,0,122,0,,,,,,,,,,,,,,,,,,,,,,,,,,,,,373.16239670000505,374.6682076000143,,,,,,344943,001,2023-08-04_15h36.02.555,magic_trick,2023.1.3,165.08378824208768,
123,0,123,0,,,,,,,,,,,,,,,,,,,,,,,,,,,,,375.16230670001823,376.6677419000189,,,,,,344943,001,2023-08-04_15h36.02.555,magic_trick,2023.1.3,165.08378824208768,
124,0,124,0,,,,,,,,,,,,,,,,,,,,,,,,,,,,,377.16200860001845,378.6678560000146,,,,,,344943,001,2023-08-04_15h36.02.555,magic_trick,2023.1.3,165.08378824208768,
125,0,125,0,,,,,,,,,,,,,,,,,,,,,,,,,,,,,379.1617982000171,380.66801180000766,,,,,,344943,001,2023-08-04_15h36.02.555,magic_trick,2023.1.3,165.08378824208768,
126,0,126,0,,,,,,,,,,,,,,,,,,,,,,,,,,,,,381.16160530000343,382.6671103000117,,,,,,344943,001,2023-08-04_15h36.02.555,magic_trick,2023.1.3,165.08378824208768,
127,0,127,0,,,,,,,,,,,,,,,,,,,,,,,,,,,,,383.1613636999973,384.6673470000096,,,,,,344943,001,2023-08-04_15h36.02.555,magic_trick,2023.1.3,165.08378824208768,
128,0,128,0,,,,,,,,,,,,,,,,,,,,,,,,,,,,,385.1612385000044,386.66762630001176,,,,,,344943,001,2023-08-04_15h36.02.555,magic_trick,2023.1.3,165.08378824208768,
129,0,129,0,,,,,,,,,,,,,,,,,,,,,,,,,,,,,387.16103450002265,388.667122200015,,,,,,344943,001,2023-08-04_15h36.02.555,magic_trick,2023.1.3,165.08378824208768,
130,0,130,0,,,,,,,,,,,,,,,,,,,,,,,,,,,,,389.1607718000014,390.6668083000113,,,,,,344943,001,2023-08-04_15h36.02.555,magic_trick,2023.1.3,165.08378824208768,
131,0,131,0,,,,,,,,,,,,,,,,,,,,,,,,,,,,,391.16058769999654,392.6669486000028,,,,,,344943,001,2023-08-04_15h36.02.555,magic_trick,2023.1.3,165.08378824208768,
132,0,132,0,,,,,,,,,,,,,,,,,,,,,,,,,,,,,393.16036229999736,394.66705380001804,,,,,,344943,001,2023-08-04_15h36.02.555,magic_trick,2023.1.3,165.08378824208768,
133,0,133,0,,,,,,,,,,,,,,,,,,,,,,,,,,,,,395.16016130000935,396.6661616000056,,,,,,344943,001,2023-08-04_15h36.02.555,magic_trick,2023.1.3,165.08378824208768,
134,0,134,0,,,,,,,,,,,,,,,,,,,,,,,,,,,,,397.15993960000924,398.6650663000182,,,,,,344943,001,2023-08-04_15h36.02.555,magic_trick,2023.1.3,165.08378824208768,
135,0,135,0,,,,,,,,,,,,,,,,,,,,,,,,,,,,,399.1597576000204,400.66568360000383,,,,,,344943,001,2023-08-04_15h36.02.555,magic_trick,2023.1.3,165.08378824208768,
136,0,136,0,,,,,,,,,,,,,,,,,,,,,,,,,,,,,401.1595930000185,402.66539199999534,,,,,,344943,001,2023-08-04_15h36.02.555,magic_trick,2023.1.3,165.08378824208768,
137,0,137,0,,,,,,,,,,,,,,,,,,,,,,,,,,,,,403.1654465000029,,,,,,,344943,001,2023-08-04_15h36.02.555,magic_trick,2023.1.3,165.08378824208768,
138,0,138,0,,,,,,,,,,,,,,,,,,,,,,,,,,,,,405.1655257999955,,,,,,,344943,001,2023-08-04_15h36.02.555,magic_trick,2023.1.3,165.08378824208768,
139,0,139,0,,,,,,,,,,,,,,,,,,,,,,,,,,,,,407.1649841000035,,,,,,,344943,001,2023-08-04_15h36.02.555,magic_trick,2023.1.3,165.08378824208768,
140,0,140,0,,,,,,,,,,,,,,,,,,,,,,,,,,,,,409.1647804999957,,,,,,,344943,001,2023-08-04_15h36.02.555,magic_trick,2023.1.3,165.08378824208768,
141,0,141,0,,,,,,,,,,,,,,,,,,,,,,,,,,,,,411.16454850000446,,,,,,,344943,001,2023-08-04_15h36.02.555,magic_trick,2023.1.3,165.08378824208768,
142,0,142,0,,,,,,,,,,,,,,,,,,,,,,,,,,,,,413.16439410002204,414.6703669000126,,,,,,344943,001,2023-08-04_15h36.02.555,magic_trick,2023.1.3,165.08378824208768,
143,0,143,0,,,,,,,,,,,,,,,,,,,,,,,,,,,,,415.1648118000012,416.6705529000028,,,,,,344943,001,2023-08-04_15h36.02.555,magic_trick,2023.1.3,165.08378824208768,
144,0,144,0,,,,,,,,,,,,,,,,,,,,,,,,,,,,,417.16406420001294,418.6657838000101,,,,,,344943,001,2023-08-04_15h36.02.555,magic_trick,2023.1.3,165.08378824208768,
145,0,145,0,,,,,,,,,,,,,,,,,,,,,,,,,,,,,419.163793100015,420.66955439999583,,,,,,344943,001,2023-08-04_15h36.02.555,magic_trick,2023.1.3,165.08378824208768,
146,0,146,0,,,,,,,,,,,,,,,,,,,,,,,,,,,,,421.1635394000041,422.669470199995,,,,,,344943,001,2023-08-04_15h36.02.555,magic_trick,2023.1.3,165.08378824208768,
147,0,147,0,,,,,,,,,,,,,,,,,,,,,,,,,,,,,423.1633626999974,424.66976030002115,,,,,,344943,001,2023-08-04_15h36.02.555,magic_trick,2023.1.3,165.08378824208768,
148,0,148,0,,,,,,,,,,,,,,,,,,,,,,,,,,,,,425.16313460000674,426.6688792000059,,,,,,344943,001,2023-08-04_15h36.02.555,magic_trick,2023.1.3,165.08378824208768,
149,0,149,0,,,,,,,,,,,,,,,,,,,,,,,,,,,,,427.1630325000151,428.66911820002133,,,,,,344943,001,2023-08-04_15h36.02.555,magic_trick,2023.1.3,165.08378824208768,
150,0,150,0,,,,,,,,,,,,,,,,,,,,,,,,,,,,,429.1627133000002,430.66905240001506,,,,,,344943,001,2023-08-04_15h36.02.555,magic_trick,2023.1.3,165.08378824208768,
151,0,151,0,,,,,,,,,,,,,,,,,,,,,,,,,,,,,431.1625713999965,432.6684670000104,,,,,,344943,001,2023-08-04_15h36.02.555,magic_trick,2023.1.3,165.08378824208768,
152,0,152,0,,,,,,,,,,,,,,,,,,,,,,,,,,,,,433.16245669999626,434.66790760000004,,,,,,344943,001,2023-08-04_15h36.02.555,magic_trick,2023.1.3,165.08378824208768,
153,0,153,0,,,,,,,,,,,,,,,,,,,,,,,,,,,,,435.16227640002035,436.6677152000193,,,,,,344943,001,2023-08-04_15h36.02.555,magic_trick,2023.1.3,165.08378824208768,
154,0,154,0,,,,,,,,,,,,,,,,,,,,,,,,,,,,,437.16191700001946,438.66807630000403,,,,,,344943,001,2023-08-04_15h36.02.555,magic_trick,2023.1.3,165.08378824208768,
155,0,155,0,,,,,,,,,,,,,,,,,,,,,,,,,,,,,439.1618481000187,440.6679281000106,,,,,,344943,001,2023-08-04_15h36.02.555,magic_trick,2023.1.3,165.08378824208768,
156,0,156,0,,,,,,,,,,,,,,,,,,,,,,,,,,,,,441.1615395999979,442.6668101999967,,,,,,344943,001,2023-08-04_15h36.02.555,magic_trick,2023.1.3,165.08378824208768,
157,0,157,0,,,,,,,,,,,,,,,,,,,,,,,,,,,,,443.16137390001677,444.6670224000118,,,,,,344943,001,2023-08-04_15h36.02.555,magic_trick,2023.1.3,165.08378824208768,
158,0,158,0,,,,,,,,,,,,,,,,,,,,,,,,,,,,,445.1611316000053,446.66675669999677,,,,,,344943,001,2023-08-04_15h36.02.555,magic_trick,2023.1.3,165.08378824208768,
159,0,159,0,,,,,,,,,,,,,,,,,,,,,,,,,,,,,447.16092819999903,448.6669632999983,,,,,,344943,001,2023-08-04_15h36.02.555,magic_trick,2023.1.3,165.08378824208768,
160,0,160,0,,,,,,,,,,,,,,,,,,,,,,,,,,,,,449.1606879000028,450.66638780001085,,,,,,344943,001,2023-08-04_15h36.02.555,magic_trick,2023.1.3,165.08378824208768,
161,0,161,0,,,,,,,,,,,,,,,,,,,,,,,,,,,,,451.16050230001565,452.666848199995,,,,,,344943,001,2023-08-04_15h36.02.555,magic_trick,2023.1.3,165.08378824208768,
162,0,162,0,,,,,,,,,,,,,,,,,,,,,,,,,,,,,453.1603881000192,454.6667052000121,,,,,,344943,001,2023-08-04_15h36.02.555,magic_trick,2023.1.3,165.08378824208768,
163,0,163,0,,,,,,,,,,,,,,,,,,,,,,,,,,,,,455.16021050000563,456.66616010002326,,,,,,344943,001,2023-08-04_15h36.02.555,magic_trick,2023.1.3,165.08378824208768,
164,0,164,0,,,,,,,,,,,,,,,,,,,,,,,,,,,,,457.1599431000068,458.66557850001846,,,,,,344943,001,2023-08-04_15h36.02.555,magic_trick,2023.1.3,165.08378824208768,
165,0,165,0,,,,,,,,,,,,,,,,,,,,,,,,,,,,,459.1597438000026,460.66551429999527,,,,,,344943,001,2023-08-04_15h36.02.555,magic_trick,2023.1.3,165.08378824208768,
166,0,166,0,,,,,,,,,,,,,,,,,,,,,,,,,,,,,461.16556350002065,,,,,,,344943,001,2023-08-04_15h36.02.555,magic_trick,2023.1.3,165.08378824208768,
167,0,167,0,,,,,,,,,,,,,,,,,,,,,,,,,,,,,463.1653458000219,,,,,,,344943,001,2023-08-04_15h36.02.555,magic_trick,2023.1.3,165.08378824208768,
168,0,168,0,,,,,,,,,,,,,,,,,,,,,,,,,,,,,465.1653248000075,466.6683064000099,,,,,,344943,001,2023-08-04_15h36.02.555,magic_trick,2023.1.3,165.08378824208768,
169,0,169,0,,,,,,,,,,,,,,,,,,,,,,,,,,,,,467.1648860000132,,,,,,,344943,001,2023-08-04_15h36.02.555,magic_trick,2023.1.3,165.08378824208768,
170,0,170,0,,,,,,,,,,,,,,,,,,,,,,,,,,,,,469.16470190000837,,,,,,,344943,001,2023-08-04_15h36.02.555,magic_trick,2023.1.3,165.08378824208768,
171,0,171,0,,,,,,,,,,,,,,,,,,,,,,,,,,,,,471.1646376000135,,,,,,,344943,001,2023-08-04_15h36.02.555,magic_trick,2023.1.3,165.08378824208768,
172,0,172,0,,,,,,,,,,,,,,,,,,,,,,,,,,,,,473.16461970002274,474.6702046999999,,,,,,344943,001,2023-08-04_15h36.02.555,magic_trick,2023.1.3,165.08378824208768,
173,0,173,0,,,,,,,,,,,,,,,,,,,,,,,,,,,,,475.1641309999977,476.66583800001536,,,,,,344943,001,2023-08-04_15h36.02.555,magic_trick,2023.1.3,165.08378824208768,
174,0,174,0,,,,,,,,,,,,,,,,,,,,,,,,,,,,,477.1639173000003,478.66526989999693,,,,,,344943,001,2023-08-04_15h36.02.555,magic_trick,2023.1.3,165.08378824208768,
175,0,175,0,,,,,,,,,,,,,,,,,,,,,,,,,,,,,479.1637629000179,480.66918460000306,,,,,,344943,001,2023-08-04_15h36.02.555,magic_trick,2023.1.3,165.08378824208768,
176,0,176,0,,,,,,,,,,,,,,,,,,,,,,,,,,,,,481.163524100004,482.66941520001274,,,,,,344943,001,2023-08-04_15h36.02.555,magic_trick,2023.1.3,165.08378824208768,
177,0,177,0,,,,,,,,,,,,,,,,,,,,,,,,,,,,,483.163432500005,484.6698218000238,,,,,,344943,001,2023-08-04_15h36.02.555,magic_trick,2023.1.3,165.08378824208768,
178,0,178,0,,,,,,,,,,,,,,,,,,,,,,,,,,,,,485.16312030001427,486.66929750001873,,,,,,344943,001,2023-08-04_15h36.02.555,magic_trick,2023.1.3,165.08378824208768,
179,0,179,0,,,,,,,,,,,,,,,,,,,,,,,,,,,,,487.1628524000116,488.6657559000014,,,,,,344943,001,2023-08-04_15h36.02.555,magic_trick,2023.1.3,165.08378824208768,
,,,,,,,,,,,,,,,,,,,,,,,,,,,,,,,,,,488.6657559000014,488.6657559000014,space,47.5613835999975,None,344943,001,2023-08-04_15h36.02.555,magic_trick,2023.1.3,165.08378824208768,
