trials.thisRepN,trials.thisTrialN,trials.thisN,trials.thisIndex,text_2.started,key_resp.started,key_resp.keys,key_resp.rt,key_resp.duration,key_resp_2.started,card_1.started,card_2.started,card_3.started,card_4.started,card_5.started,card_6.started,card_7.started,card_8.started,card_9.started,key_resp_2.keys,key_resp_2.rt,key_resp_2.duration,card_shown.started,card_shown.stopped,participant,session,date,expName,psychopyVersion,frameRate,
,,,,7.6647569999913685,7.6647569999913685,space,48.87127220002003,None,,,,,,,,,,,,,,,,453305,001,2023-07-30_20h16.05.128,magic_trick,2023.1.3,164.7774925628388,
,,,,,,,,,56.688910600030795,56.688910600030795,56.688910600030795,56.688910600030795,56.688910600030795,56.688910600030795,56.688910600030795,56.688910600030795,56.688910600030795,56.688910600030795,space,1.7745834999950603,None,,,453305,001,2023-07-30_20h16.05.128,magic_trick,2023.1.3,164.7774925628388,
0,0,0,0,,,,,,,,,,,,,,,,,,,58.77133870002581,,453305,001,2023-07-30_20h16.05.128,magic_trick,2023.1.3,164.7774925628388,
1,0,1,0,,,,,,,,,,,,,,,,,,,60.364761500037275,61.67203120002523,453305,001,2023-07-30_20h16.05.128,magic_trick,2023.1.3,164.7774925628388,
2,0,2,0,,,,,,,,,,,,,,,,,,,61.96970489999512,,453305,001,2023-07-30_20h16.05.128,magic_trick,2023.1.3,164.7774925628388,
3,0,3,0,,,,,,,,,,,,,,,,,,,63.568766300042626,64.87301540002227,453305,001,2023-07-30_20h16.05.128,magic_trick,2023.1.3,164.7774925628388,
4,0,4,0,,,,,,,,,,,,,,,,,,,65.17076710000401,,453305,001,2023-07-30_20h16.05.128,magic_trick,2023.1.3,164.7774925628388,
5,0,5,0,,,,,,,,,,,,,,,,,,,66.76935210003285,,453305,001,2023-07-30_20h16.05.128,magic_trick,2023.1.3,164.7774925628388,
6,0,6,0,,,,,,,,,,,,,,,,,,,68.36777140002232,69.67517950001638,453305,001,2023-07-30_20h16.05.128,magic_trick,2023.1.3,164.7774925628388,
7,0,7,0,,,,,,,,,,,,,,,,,,,69.96677759999875,71.27427410002565,453305,001,2023-07-30_20h16.05.128,magic_trick,2023.1.3,164.7774925628388,
8,0,8,0,,,,,,,,,,,,,,,,,,,71.57252250000602,,453305,001,2023-07-30_20h16.05.128,magic_trick,2023.1.3,164.7774925628388,
9,0,9,0,,,,,,,,,,,,,,,,,,,73.16617280000355,74.4727159999893,453305,001,2023-07-30_20h16.05.128,magic_trick,2023.1.3,164.7774925628388,
10,0,10,0,,,,,,,,,,,,,,,,,,,74.77177370002028,,453305,001,2023-07-30_20h16.05.128,magic_trick,2023.1.3,164.7774925628388,
11,0,11,0,,,,,,,,,,,,,,,,,,,76.3704534000135,77.67607640003553,453305,001,2023-07-30_20h16.05.128,magic_trick,2023.1.3,164.7774925628388,
12,0,12,0,,,,,,,,,,,,,,,,,,,77.96774829999777,79.27553710003849,453305,001,2023-07-30_20h16.05.128,magic_trick,2023.1.3,164.7774925628388,
13,0,13,0,,,,,,,,,,,,,,,,,,,79.56717709999066,80.87412029999541,453305,001,2023-07-30_20h16.05.128,magic_trick,2023.1.3,164.7774925628388,
14,0,14,0,,,,,,,,,,,,,,,,,,,81.17163160000928,,453305,001,2023-07-30_20h16.05.128,magic_trick,2023.1.3,164.7774925628388,
15,0,15,0,,,,,,,,,,,,,,,,,,,82.76995200000238,,453305,001,2023-07-30_20h16.05.128,magic_trick,2023.1.3,164.7774925628388,
16,0,16,0,,,,,,,,,,,,,,,,,,,84.36914339999203,,453305,001,2023-07-30_20h16.05.128,magic_trick,2023.1.3,164.7774925628388,
17,0,17,0,,,,,,,,,,,,,,,,,,,85.96944800001802,,453305,001,2023-07-30_20h16.05.128,magic_trick,2023.1.3,164.7774925628388,
18,0,18,0,,,,,,,,,,,,,,,,,,,87.56791070004692,88.87599890003912,453305,001,2023-07-30_20h16.05.128,magic_trick,2023.1.3,164.7774925628388,
19,0,19,0,,,,,,,,,,,,,,,,,,,89.16760600003181,90.47568989999127,453305,001,2023-07-30_20h16.05.128,magic_trick,2023.1.3,164.7774925628388,
20,0,20,0,,,,,,,,,,,,,,,,,,,90.76731750002364,92.07514239999,453305,001,2023-07-30_20h16.05.128,magic_trick,2023.1.3,164.7774925628388,
21,0,21,0,,,,,,,,,,,,,,,,,,,92.36679510003887,93.67445069999667,453305,001,2023-07-30_20h16.05.128,magic_trick,2023.1.3,164.7774925628388,
22,0,22,0,,,,,,,,,,,,,,,,,,,93.9661422999925,95.2742631000001,453305,001,2023-07-30_20h16.05.128,magic_trick,2023.1.3,164.7774925628388,
23,0,23,0,,,,,,,,,,,,,,,,,,,95.57178600004409,,453305,001,2023-07-30_20h16.05.128,magic_trick,2023.1.3,164.7774925628388,
24,0,24,0,,,,,,,,,,,,,,,,,,,97.1705818999908,98.47355880000396,453305,001,2023-07-30_20h16.05.128,magic_trick,2023.1.3,164.7774925628388,
25,0,25,0,,,,,,,,,,,,,,,,,,,98.77100720000453,,453305,001,2023-07-30_20h16.05.128,magic_trick,2023.1.3,164.7774925628388,
26,0,26,0,,,,,,,,,,,,,,,,,,,100.36966950003989,,453305,001,2023-07-30_20h16.05.128,magic_trick,2023.1.3,164.7774925628388,
27,0,27,0,,,,,,,,,,,,,,,,,,,101.96815010003047,103.27505669998936,453305,001,2023-07-30_20h16.05.128,magic_trick,2023.1.3,164.7774925628388,
28,0,28,0,,,,,,,,,,,,,,,,,,,103.56669800000964,104.87381780002033,453305,001,2023-07-30_20h16.05.128,magic_trick,2023.1.3,164.7774925628388,
29,0,29,0,,,,,,,,,,,,,,,,,,,105.1652705000015,106.47262050001882,453305,001,2023-07-30_20h16.05.128,magic_trick,2023.1.3,164.7774925628388,
30,0,30,0,,,,,,,,,,,,,,,,,,,106.7704098999966,,453305,001,2023-07-30_20h16.05.128,magic_trick,2023.1.3,164.7774925628388,
31,0,31,0,,,,,,,,,,,,,,,,,,,108.36894390004454,,453305,001,2023-07-30_20h16.05.128,magic_trick,2023.1.3,164.7774925628388,
32,0,32,0,,,,,,,,,,,,,,,,,,,109.96880200004671,111.27422490000026,453305,001,2023-07-30_20h16.05.128,magic_trick,2023.1.3,164.7774925628388,
33,0,33,0,,,,,,,,,,,,,,,,,,,111.57149440003559,,453305,001,2023-07-30_20h16.05.128,magic_trick,2023.1.3,164.7774925628388,
34,0,34,0,,,,,,,,,,,,,,,,,,,113.16873289999785,114.47472950001247,453305,001,2023-07-30_20h16.05.128,magic_trick,2023.1.3,164.7774925628388,
35,0,35,0,,,,,,,,,,,,,,,,,,,114.76615320000565,116.07382170000346,453305,001,2023-07-30_20h16.05.128,magic_trick,2023.1.3,164.7774925628388,
36,0,36,0,,,,,,,,,,,,,,,,,,,116.37145890004467,,453305,001,2023-07-30_20h16.05.128,magic_trick,2023.1.3,164.7774925628388,
37,0,37,0,,,,,,,,,,,,,,,,,,,117.97018639999442,,453305,001,2023-07-30_20h16.05.128,magic_trick,2023.1.3,164.7774925628388,
38,0,38,0,,,,,,,,,,,,,,,,,,,119.56918530003168,120.87608350004302,453305,001,2023-07-30_20h16.05.128,magic_trick,2023.1.3,164.7774925628388,
39,0,39,0,,,,,,,,,,,,,,,,,,,121.16775469999993,122.47510310000507,453305,001,2023-07-30_20h16.05.128,magic_trick,2023.1.3,164.7774925628388,
40,0,40,0,,,,,,,,,,,,,,,,,,,122.76803440001095,124.07578960002866,453305,001,2023-07-30_20h16.05.128,magic_trick,2023.1.3,164.7774925628388,
41,0,41,0,,,,,,,,,,,,,,,,,,,124.36745030002203,125.67458019999322,453305,001,2023-07-30_20h16.05.128,magic_trick,2023.1.3,164.7774925628388,
42,0,42,0,,,,,,,,,,,,,,,,,,,125.96631470002467,127.27286580001237,453305,001,2023-07-30_20h16.05.128,magic_trick,2023.1.3,164.7774925628388,
43,0,43,0,,,,,,,,,,,,,,,,,,,127.57065490004607,,453305,001,2023-07-30_20h16.05.128,magic_trick,2023.1.3,164.7774925628388,
44,0,44,0,,,,,,,,,,,,,,,,,,,129.16950590000488,130.47238680004375,453305,001,2023-07-30_20h16.05.128,magic_trick,2023.1.3,164.7774925628388,
45,0,45,0,,,,,,,,,,,,,,,,,,,130.77012180001475,,453305,001,2023-07-30_20h16.05.128,magic_trick,2023.1.3,164.7774925628388,
46,0,46,0,,,,,,,,,,,,,,,,,,,132.36860149999848,133.67519640002865,453305,001,2023-07-30_20h16.05.128,magic_trick,2023.1.3,164.7774925628388,
47,0,47,0,,,,,,,,,,,,,,,,,,,133.9668636000133,135.273716900032,453305,001,2023-07-30_20h16.05.128,magic_trick,2023.1.3,164.7774925628388,
48,0,48,0,,,,,,,,,,,,,,,,,,,135.57219830004033,,453305,001,2023-07-30_20h16.05.128,magic_trick,2023.1.3,164.7774925628388,
49,0,49,0,,,,,,,,,,,,,,,,,,,137.16684369998984,138.47121829999378,453305,001,2023-07-30_20h16.05.128,magic_trick,2023.1.3,164.7774925628388,
