trials.thisRepN,trials.thisTrialN,trials.thisN,trials.thisIndex,text_2.started,key_resp.started,key_resp.keys,key_resp.rt,key_resp.duration,key_resp_2.started,card_1.started,card_2.started,card_3.started,card_4.started,card_5.started,card_6.started,card_7.started,card_8.started,card_9.started,key_resp_2.keys,key_resp_2.rt,key_resp_2.duration,text.started,card_shown.started,text.stopped,participant,session,date,expName,psychopyVersion,frameRate,
,,,,7.186076199985109,7.186076199985109,space,30.418151599995326,None,,,,,,,,,,,,,,,,,457806,001,2023-08-06_14h27.33.738,magic_trick,2023.1.3,164.80627837118396,
,,,,,,,,,37.76904360001208,37.76904360001208,37.76904360001208,37.76904360001208,37.76904360001208,37.76904360001208,37.76904360001208,37.76904360001208,37.76904360001208,37.76904360001208,space,3.547230700030923,None,,,,457806,001,2023-08-06_14h27.33.738,magic_trick,2023.1.3,164.80627837118396,
0,0,0,0,,,,,,,,,,,,,,,,,,,41.32338110002456,41.84068480000133,,457806,001,2023-08-06_14h27.33.738,magic_trick,2023.1.3,164.80627837118396,
1,0,1,0,,,,,,,,,,,,,,,,,,,42.82300590001978,43.32656060002046,43.32656060002046,457806,001,2023-08-06_14h27.33.738,magic_trick,2023.1.3,164.80627837118396,
2,0,2,0,,,,,,,,,,,,,,,,,,,44.321973100013565,44.829795100027695,,457806,001,2023-08-06_14h27.33.738,magic_trick,2023.1.3,164.80627837118396,
3,0,3,0,,,,,,,,,,,,,,,,,,,45.82486400002381,46.33255200000713,,457806,001,2023-08-06_14h27.33.738,magic_trick,2023.1.3,164.80627837118396,
4,0,4,0,,,,,,,,,,,,,,,,,,,47.327588799991645,47.82759780000197,,457806,001,2023-08-06_14h27.33.738,magic_trick,2023.1.3,164.80627837118396,
5,0,5,0,,,,,,,,,,,,,,,,,,,48.822985799983144,49.330937699996866,,457806,001,2023-08-06_14h27.33.738,magic_trick,2023.1.3,164.80627837118396,
6,0,6,0,,,,,,,,,,,,,,,,,,,50.32583390001673,50.82743170001777,,457806,001,2023-08-06_14h27.33.738,magic_trick,2023.1.3,164.80627837118396,
7,0,7,0,,,,,,,,,,,,,,,,,,,51.82326660002582,52.332785699982196,,457806,001,2023-08-06_14h27.33.738,magic_trick,2023.1.3,164.80627837118396,
8,0,8,0,,,,,,,,,,,,,,,,,,,53.3276668000035,53.82786880002823,,457806,001,2023-08-06_14h27.33.738,magic_trick,2023.1.3,164.80627837118396,
9,0,9,0,,,,,,,,,,,,,,,,,,,54.828605099988636,55.332401200023014,,457806,001,2023-08-06_14h27.33.738,magic_trick,2023.1.3,164.80627837118396,
10,0,10,0,,,,,,,,,,,,,,,,,,,56.32719109999016,56.82866170001216,,457806,001,2023-08-06_14h27.33.738,magic_trick,2023.1.3,164.80627837118396,
11,0,11,0,,,,,,,,,,,,,,,,,,,57.823496100027114,58.332062700006645,,457806,001,2023-08-06_14h27.33.738,magic_trick,2023.1.3,164.80627837118396,
12,0,12,0,,,,,,,,,,,,,,,,,,,59.32699269999284,59.828677400015295,,457806,001,2023-08-06_14h27.33.738,magic_trick,2023.1.3,164.80627837118396,
13,0,13,0,,,,,,,,,,,,,,,,,,,60.823515600000974,61.33199969999259,,457806,001,2023-08-06_14h27.33.738,magic_trick,2023.1.3,164.80627837118396,
14,0,14,0,,,,,,,,,,,,,,,,,,,62.326740199991036,62.8285100000212,,457806,001,2023-08-06_14h27.33.738,magic_trick,2023.1.3,164.80627837118396,
15,0,15,0,,,,,,,,,,,,,,,,,,,63.82324220001465,64.32909449998988,,457806,001,2023-08-06_14h27.33.738,magic_trick,2023.1.3,164.80627837118396,
16,0,16,0,,,,,,,,,,,,,,,,,,,65.32381460000761,65.83148629998323,,457806,001,2023-08-06_14h27.33.738,magic_trick,2023.1.3,164.80627837118396,
17,0,17,0,,,,,,,,,,,,,,,,,,,66.82844140002271,67.33019110001624,,457806,001,2023-08-06_14h27.33.738,magic_trick,2023.1.3,164.80627837118396,
18,0,18,0,,,,,,,,,,,,,,,,,,,68.32515620003687,68.83316650002962,,457806,001,2023-08-06_14h27.33.738,magic_trick,2023.1.3,164.80627837118396,
19,0,19,0,,,,,,,,,,,,,,,,,,,69.8275508999941,70.32955120003317,,457806,001,2023-08-06_14h27.33.738,magic_trick,2023.1.3,164.80627837118396,
20,0,20,0,,,,,,,,,,,,,,,,,,,71.32423840003321,71.83503950003069,,457806,001,2023-08-06_14h27.33.738,magic_trick,2023.1.3,164.80627837118396,
21,0,21,0,,,,,,,,,,,,,,,,,,,72.82662479998544,73.33242540003266,,457806,001,2023-08-06_14h27.33.738,magic_trick,2023.1.3,164.80627837118396,
22,0,22,0,,,,,,,,,,,,,,,,,,,74.32678760000272,74.82849200000055,,457806,001,2023-08-06_14h27.33.738,magic_trick,2023.1.3,164.80627837118396,
23,0,23,0,,,,,,,,,,,,,,,,,,,75.82360950001748,76.33164689998375,,457806,001,2023-08-06_14h27.33.738,magic_trick,2023.1.3,164.80627837118396,
24,0,24,0,,,,,,,,,,,,,,,,,,,77.32614650001051,77.82938670000294,,457806,001,2023-08-06_14h27.33.738,magic_trick,2023.1.3,164.80627837118396,
25,0,25,0,,,,,,,,,,,,,,,,,,,78.82586420001462,79.33222410001326,,457806,001,2023-08-06_14h27.33.738,magic_trick,2023.1.3,164.80627837118396,
26,0,26,0,,,,,,,,,,,,,,,,,,,80.3268187000067,80.82972829998471,,457806,001,2023-08-06_14h27.33.738,magic_trick,2023.1.3,164.80627837118396,
27,0,27,0,,,,,,,,,,,,,,,,,,,81.82489640003769,82.33178870001575,,457806,001,2023-08-06_14h27.33.738,magic_trick,2023.1.3,164.80627837118396,
28,0,28,0,,,,,,,,,,,,,,,,,,,83.32675250002649,83.82687350001652,,457806,001,2023-08-06_14h27.33.738,magic_trick,2023.1.3,164.80627837118396,
29,0,29,0,,,,,,,,,,,,,,,,,,,84.82776700000977,85.32892120000906,,457806,001,2023-08-06_14h27.33.738,magic_trick,2023.1.3,164.80627837118396,
30,0,30,0,,,,,,,,,,,,,,,,,,,86.32498550001765,86.83298090001335,,457806,001,2023-08-06_14h27.33.738,magic_trick,2023.1.3,164.80627837118396,
31,0,31,0,,,,,,,,,,,,,,,,,,,87.82776000001468,88.32980380003573,,457806,001,2023-08-06_14h27.33.738,magic_trick,2023.1.3,164.80627837118396,
32,0,32,0,,,,,,,,,,,,,,,,,,,89.32532070000889,89.83451499999501,,457806,001,2023-08-06_14h27.33.738,magic_trick,2023.1.3,164.80627837118396,
33,0,33,0,,,,,,,,,,,,,,,,,,,90.82312469999306,91.33032180002192,,457806,001,2023-08-06_14h27.33.738,magic_trick,2023.1.3,164.80627837118396,
34,0,34,0,,,,,,,,,,,,,,,,,,,92.32514159998391,92.83250900002895,,457806,001,2023-08-06_14h27.33.738,magic_trick,2023.1.3,164.80627837118396,
35,0,35,0,,,,,,,,,,,,,,,,,,,93.82861560001038,94.33082650002325,,457806,001,2023-08-06_14h27.33.738,magic_trick,2023.1.3,164.80627837118396,
36,0,36,0,,,,,,,,,,,,,,,,,,,95.325556900003,95.82731220003916,,457806,001,2023-08-06_14h27.33.738,magic_trick,2023.1.3,164.80627837118396,
37,0,37,0,,,,,,,,,,,,,,,,,,,96.82836739998311,97.33057829999598,,457806,001,2023-08-06_14h27.33.738,magic_trick,2023.1.3,164.80627837118396,
38,0,38,0,,,,,,,,,,,,,,,,,,,98.3253354000044,98.82716470002197,,457806,001,2023-08-06_14h27.33.738,magic_trick,2023.1.3,164.80627837118396,
39,0,39,0,,,,,,,,,,,,,,,,,,,99.82787099998677,100.32771809998667,,457806,001,2023-08-06_14h27.33.738,magic_trick,2023.1.3,164.80627837118396,
40,0,40,0,,,,,,,,,,,,,,,,,,,101.324015900027,101.83199239999522,,457806,001,2023-08-06_14h27.33.738,magic_trick,2023.1.3,164.80627837118396,
41,0,41,0,,,,,,,,,,,,,,,,,,,102.8278536000289,103.32784799998626,,457806,001,2023-08-06_14h27.33.738,magic_trick,2023.1.3,164.80627837118396,
42,0,42,0,,,,,,,,,,,,,,,,,,,104.32258259999799,104.83044280001195,,457806,001,2023-08-06_14h27.33.738,magic_trick,2023.1.3,164.80627837118396,
43,0,43,0,,,,,,,,,,,,,,,,,,,105.82518729998264,106.33276710001519,,457806,001,2023-08-06_14h27.33.738,magic_trick,2023.1.3,164.80627837118396,
44,0,44,0,,,,,,,,,,,,,,,,,,,107.32755109999562,107.82967300002929,,457806,001,2023-08-06_14h27.33.738,magic_trick,2023.1.3,164.80627837118396,
45,0,45,0,,,,,,,,,,,,,,,,,,,108.82441830000607,109.32738580001751,,457806,001,2023-08-06_14h27.33.738,magic_trick,2023.1.3,164.80627837118396,
46,0,46,0,,,,,,,,,,,,,,,,,,,110.32869009999558,110.82885990000796,,457806,001,2023-08-06_14h27.33.738,magic_trick,2023.1.3,164.80627837118396,
47,0,47,0,,,,,,,,,,,,,,,,,,,111.82517820002977,112.32735069998307,,457806,001,2023-08-06_14h27.33.738,magic_trick,2023.1.3,164.80627837118396,
48,0,48,0,,,,,,,,,,,,,,,,,,,113.32833980000578,113.83075570000801,,457806,001,2023-08-06_14h27.33.738,magic_trick,2023.1.3,164.80627837118396,
49,0,49,0,,,,,,,,,,,,,,,,,,,114.82551019999664,115.32723200001055,,457806,001,2023-08-06_14h27.33.738,magic_trick,2023.1.3,164.80627837118396,
50,0,50,0,,,,,,,,,,,,,,,,,,,116.32806329999585,116.82900530000916,,457806,001,2023-08-06_14h27.33.738,magic_trick,2023.1.3,164.80627837118396,
51,0,51,0,,,,,,,,,,,,,,,,,,,117.82441810000455,118.33118269999977,,457806,001,2023-08-06_14h27.33.738,magic_trick,2023.1.3,164.80627837118396,
52,0,52,0,,,,,,,,,,,,,,,,,,,119.32595399999991,119.82773680001264,,457806,001,2023-08-06_14h27.33.738,magic_trick,2023.1.3,164.80627837118396,
53,0,53,0,,,,,,,,,,,,,,,,,,,120.82840310002211,121.32806050003273,,457806,001,2023-08-06_14h27.33.738,magic_trick,2023.1.3,164.80627837118396,
54,0,54,0,,,,,,,,,,,,,,,,,,,122.32886040001176,122.83007610001368,,457806,001,2023-08-06_14h27.33.738,magic_trick,2023.1.3,164.80627837118396,
55,0,55,0,,,,,,,,,,,,,,,,,,,123.8248410000233,124.33184679999249,,457806,001,2023-08-06_14h27.33.738,magic_trick,2023.1.3,164.80627837118396,
56,0,56,0,,,,,,,,,,,,,,,,,,,125.3270142999827,125.82894909998868,,457806,001,2023-08-06_14h27.33.738,magic_trick,2023.1.3,164.80627837118396,
57,0,57,0,,,,,,,,,,,,,,,,,,,126.82380750001175,127.33350260002771,,457806,001,2023-08-06_14h27.33.738,magic_trick,2023.1.3,164.80627837118396,
58,0,58,0,,,,,,,,,,,,,,,,,,,128.32987780001713,128.8279182999977,,457806,001,2023-08-06_14h27.33.738,magic_trick,2023.1.3,164.80627837118396,
59,0,59,0,,,,,,,,,,,,,,,,,,,129.82969480002066,130.33059000002686,,457806,001,2023-08-06_14h27.33.738,magic_trick,2023.1.3,164.80627837118396,
60,0,60,0,,,,,,,,,,,,,,,,,,,131.32574070000555,131.8378306000377,,457806,001,2023-08-06_14h27.33.738,magic_trick,2023.1.3,164.80627837118396,
61,0,61,0,,,,,,,,,,,,,,,,,,,132.82606570003554,133.3272900999873,,457806,001,2023-08-06_14h27.33.738,magic_trick,2023.1.3,164.80627837118396,
62,0,62,0,,,,,,,,,,,,,,,,,,,134.32890389999375,134.83032720000483,,457806,001,2023-08-06_14h27.33.738,magic_trick,2023.1.3,164.80627837118396,
63,0,63,0,,,,,,,,,,,,,,,,,,,135.82530170003884,136.32776140002534,,457806,001,2023-08-06_14h27.33.738,magic_trick,2023.1.3,164.80627837118396,
64,0,64,0,,,,,,,,,,,,,,,,,,,137.3284744999837,137.82881310000084,,457806,001,2023-08-06_14h27.33.738,magic_trick,2023.1.3,164.80627837118396,
65,0,65,0,,,,,,,,,,,,,,,,,,,138.8237982999999,139.33326430001762,,457806,001,2023-08-06_14h27.33.738,magic_trick,2023.1.3,164.80627837118396,
66,0,66,0,,,,,,,,,,,,,,,,,,,140.32840900000883,140.82997269998305,,457806,001,2023-08-06_14h27.33.738,magic_trick,2023.1.3,164.80627837118396,
67,0,67,0,,,,,,,,,,,,,,,,,,,141.82436319999397,142.33220529998653,,457806,001,2023-08-06_14h27.33.738,magic_trick,2023.1.3,164.80627837118396,
68,0,68,0,,,,,,,,,,,,,,,,,,,143.3268805000116,143.82848760002526,,457806,001,2023-08-06_14h27.33.738,magic_trick,2023.1.3,164.80627837118396,
69,0,69,0,,,,,,,,,,,,,,,,,,,144.82585369999288,145.33311330003198,,457806,001,2023-08-06_14h27.33.738,magic_trick,2023.1.3,164.80627837118396,
70,0,70,0,,,,,,,,,,,,,,,,,,,146.3278844000306,146.82974429999013,,457806,001,2023-08-06_14h27.33.738,magic_trick,2023.1.3,164.80627837118396,
71,0,71,0,,,,,,,,,,,,,,,,,,,147.8242489999975,148.33194810000714,,457806,001,2023-08-06_14h27.33.738,magic_trick,2023.1.3,164.80627837118396,
72,0,72,0,,,,,,,,,,,,,,,,,,,149.32662170002004,149.82675539999036,,457806,001,2023-08-06_14h27.33.738,magic_trick,2023.1.3,164.80627837118396,
73,0,73,0,,,,,,,,,,,,,,,,,,,150.82736300001852,151.3302354000043,,457806,001,2023-08-06_14h27.33.738,magic_trick,2023.1.3,164.80627837118396,
74,0,74,0,,,,,,,,,,,,,,,,,,,152.32560179999564,152.82818290003343,,457806,001,2023-08-06_14h27.33.738,magic_trick,2023.1.3,164.80627837118396,
75,0,75,0,,,,,,,,,,,,,,,,,,,153.823213900032,154.33321200002683,,457806,001,2023-08-06_14h27.33.738,magic_trick,2023.1.3,164.80627837118396,
76,0,76,0,,,,,,,,,,,,,,,,,,,155.32797590002883,155.8319733000244,,457806,001,2023-08-06_14h27.33.738,magic_trick,2023.1.3,164.80627837118396,
77,0,77,0,,,,,,,,,,,,,,,,,,,156.82676500000525,157.3289958999958,,457806,001,2023-08-06_14h27.33.738,magic_trick,2023.1.3,164.80627837118396,
78,0,78,0,,,,,,,,,,,,,,,,,,,158.32379930000752,158.83165770000778,,457806,001,2023-08-06_14h27.33.738,magic_trick,2023.1.3,164.80627837118396,
79,0,79,0,,,,,,,,,,,,,,,,,,,159.82631119998405,160.32574619998923,,457806,001,2023-08-06_14h27.33.738,magic_trick,2023.1.3,164.80627837118396,
80,0,80,0,,,,,,,,,,,,,,,,,,,161.32649850001326,161.8303759000264,,457806,001,2023-08-06_14h27.33.738,magic_trick,2023.1.3,164.80627837118396,
81,0,81,0,,,,,,,,,,,,,,,,,,,162.82528140000068,163.3290788999875,,457806,001,2023-08-06_14h27.33.738,magic_trick,2023.1.3,164.80627837118396,
82,0,82,0,,,,,,,,,,,,,,,,,,,164.32390140002826,164.83326789998682,,457806,001,2023-08-06_14h27.33.738,magic_trick,2023.1.3,164.80627837118396,
83,0,83,0,,,,,,,,,,,,,,,,,,,165.82156910002232,166.3303376000258,,457806,001,2023-08-06_14h27.33.738,magic_trick,2023.1.3,164.80627837118396,
84,0,84,0,,,,,,,,,,,,,,,,,,,167.3250868000323,167.82805569999618,,457806,001,2023-08-06_14h27.33.738,magic_trick,2023.1.3,164.80627837118396,
85,0,85,0,,,,,,,,,,,,,,,,,,,168.8231237999862,169.33058910002,,457806,001,2023-08-06_14h27.33.738,magic_trick,2023.1.3,164.80627837118396,
86,0,86,0,,,,,,,,,,,,,,,,,,,170.32559790002415,170.8279995000339,,457806,001,2023-08-06_14h27.33.738,magic_trick,2023.1.3,164.80627837118396,
87,0,87,0,,,,,,,,,,,,,,,,,,,171.82287919998635,172.32621289999224,172.32621289999224,457806,001,2023-08-06_14h27.33.738,magic_trick,2023.1.3,164.80627837118396,
88,0,88,0,,,,,,,,,,,,,,,,,,,173.32693189999554,173.82665060000727,,457806,001,2023-08-06_14h27.33.738,magic_trick,2023.1.3,164.80627837118396,
89,0,89,0,,,,,,,,,,,,,,,,,,,174.82752799999435,175.3292973000207,,457806,001,2023-08-06_14h27.33.738,magic_trick,2023.1.3,164.80627837118396,
90,0,90,0,,,,,,,,,,,,,,,,,,,176.32370559999254,176.833507000003,,457806,001,2023-08-06_14h27.33.738,magic_trick,2023.1.3,164.80627837118396,
91,0,91,0,,,,,,,,,,,,,,,,,,,177.82258989999536,178.32941700000083,,457806,001,2023-08-06_14h27.33.738,magic_trick,2023.1.3,164.80627837118396,
92,0,92,0,,,,,,,,,,,,,,,,,,,179.3242704999866,179.83113930001855,,457806,001,2023-08-06_14h27.33.738,magic_trick,2023.1.3,164.80627837118396,
93,0,93,0,,,,,,,,,,,,,,,,,,,180.8258851999999,181.3303198000067,,457806,001,2023-08-06_14h27.33.738,magic_trick,2023.1.3,164.80627837118396,
94,0,94,0,,,,,,,,,,,,,,,,,,,182.3251088000252,182.8320429000305,,457806,001,2023-08-06_14h27.33.738,magic_trick,2023.1.3,164.80627837118396,
95,0,95,0,,,,,,,,,,,,,,,,,,,183.82773319998523,184.3296765999985,,457806,001,2023-08-06_14h27.33.738,magic_trick,2023.1.3,164.80627837118396,
96,0,96,0,,,,,,,,,,,,,,,,,,,185.32436840003356,185.83107830001973,,457806,001,2023-08-06_14h27.33.738,magic_trick,2023.1.3,164.80627837118396,
97,0,97,0,,,,,,,,,,,,,,,,,,,186.82594429998426,187.32866090000607,,457806,001,2023-08-06_14h27.33.738,magic_trick,2023.1.3,164.80627837118396,
98,0,98,0,,,,,,,,,,,,,,,,,,,188.32843709998997,188.82969630003208,,457806,001,2023-08-06_14h27.33.738,magic_trick,2023.1.3,164.80627837118396,
99,0,99,0,,,,,,,,,,,,,,,,,,,189.82409990002634,190.33280159998685,,457806,001,2023-08-06_14h27.33.738,magic_trick,2023.1.3,164.80627837118396,
100,0,100,0,,,,,,,,,,,,,,,,,,,191.327185800008,191.83005669998238,,457806,001,2023-08-06_14h27.33.738,magic_trick,2023.1.3,164.80627837118396,
101,0,101,0,,,,,,,,,,,,,,,,,,,192.82533090002835,193.32715030002873,,457806,001,2023-08-06_14h27.33.738,magic_trick,2023.1.3,164.80627837118396,
102,0,102,0,,,,,,,,,,,,,,,,,,,194.3295902000391,194.82762400002684,,457806,001,2023-08-06_14h27.33.738,magic_trick,2023.1.3,164.80627837118396,
103,0,103,0,,,,,,,,,,,,,,,,,,,195.82812160003232,196.33006320003187,,457806,001,2023-08-06_14h27.33.738,magic_trick,2023.1.3,164.80627837118396,
104,0,104,0,,,,,,,,,,,,,,,,,,,197.32484990003286,197.8307645000168,,457806,001,2023-08-06_14h27.33.738,magic_trick,2023.1.3,164.80627837118396,
105,0,105,0,,,,,,,,,,,,,,,,,,,198.8256438000244,199.33305549999932,,457806,001,2023-08-06_14h27.33.738,magic_trick,2023.1.3,164.80627837118396,
106,0,106,0,,,,,,,,,,,,,,,,,,,200.32745560002513,200.83039060002193,,457806,001,2023-08-06_14h27.33.738,magic_trick,2023.1.3,164.80627837118396,
107,0,107,0,,,,,,,,,,,,,,,,,,,201.8269866000046,202.33211459999438,,457806,001,2023-08-06_14h27.33.738,magic_trick,2023.1.3,164.80627837118396,
108,0,108,0,,,,,,,,,,,,,,,,,,,203.3280614000396,203.83045310003217,,457806,001,2023-08-06_14h27.33.738,magic_trick,2023.1.3,164.80627837118396,
109,0,109,0,,,,,,,,,,,,,,,,,,,204.82481269998243,205.33244279999053,,457806,001,2023-08-06_14h27.33.738,magic_trick,2023.1.3,164.80627837118396,
110,0,110,0,,,,,,,,,,,,,,,,,,,206.32720719999634,206.8306071999832,,457806,001,2023-08-06_14h27.33.738,magic_trick,2023.1.3,164.80627837118396,
111,0,111,0,,,,,,,,,,,,,,,,,,,207.82529260002775,208.33109729998978,,457806,001,2023-08-06_14h27.33.738,magic_trick,2023.1.3,164.80627837118396,
112,0,112,0,,,,,,,,,,,,,,,,,,,209.32580749999033,209.8278580000042,,457806,001,2023-08-06_14h27.33.738,magic_trick,2023.1.3,164.80627837118396,
113,0,113,0,,,,,,,,,,,,,,,,,,,210.82831890002126,211.33028049999848,,457806,001,2023-08-06_14h27.33.738,magic_trick,2023.1.3,164.80627837118396,
114,0,114,0,,,,,,,,,,,,,,,,,,,212.32493190001696,212.8276332000387,,457806,001,2023-08-06_14h27.33.738,magic_trick,2023.1.3,164.80627837118396,
115,0,115,0,,,,,,,,,,,,,,,,,,,213.8288035999867,214.33027730003232,,457806,001,2023-08-06_14h27.33.738,magic_trick,2023.1.3,164.80627837118396,
116,0,116,0,,,,,,,,,,,,,,,,,,,215.324955100019,215.83230380003806,,457806,001,2023-08-06_14h27.33.738,magic_trick,2023.1.3,164.80627837118396,
117,0,117,0,,,,,,,,,,,,,,,,,,,216.82719119999092,217.32838110002922,,457806,001,2023-08-06_14h27.33.738,magic_trick,2023.1.3,164.80627837118396,
118,0,118,0,,,,,,,,,,,,,,,,,,,218.32362480001757,218.8321231000009,,457806,001,2023-08-06_14h27.33.738,magic_trick,2023.1.3,164.80627837118396,
119,0,119,0,,,,,,,,,,,,,,,,,,,219.82686100003775,220.32841850002296,,457806,001,2023-08-06_14h27.33.738,magic_trick,2023.1.3,164.80627837118396,
120,0,120,0,,,,,,,,,,,,,,,,,,,221.3240071000182,221.83273590001045,,457806,001,2023-08-06_14h27.33.738,magic_trick,2023.1.3,164.80627837118396,
121,0,121,0,,,,,,,,,,,,,,,,,,,222.82817659998545,223.33069370000158,,457806,001,2023-08-06_14h27.33.738,magic_trick,2023.1.3,164.80627837118396,
122,0,122,0,,,,,,,,,,,,,,,,,,,224.32544129999587,224.82713940000394,,457806,001,2023-08-06_14h27.33.738,magic_trick,2023.1.3,164.80627837118396,
123,0,123,0,,,,,,,,,,,,,,,,,,,225.82785519998288,226.32829129998572,,457806,001,2023-08-06_14h27.33.738,magic_trick,2023.1.3,164.80627837118396,
124,0,124,0,,,,,,,,,,,,,,,,,,,227.32303929998307,227.83344399998896,,457806,001,2023-08-06_14h27.33.738,magic_trick,2023.1.3,164.80627837118396,
125,0,125,0,,,,,,,,,,,,,,,,,,,228.82328230002895,229.3303912000265,,457806,001,2023-08-06_14h27.33.738,magic_trick,2023.1.3,164.80627837118396,
126,0,126,0,,,,,,,,,,,,,,,,,,,230.3257579000201,230.83810390002327,,457806,001,2023-08-06_14h27.33.738,magic_trick,2023.1.3,164.80627837118396,
127,0,127,0,,,,,,,,,,,,,,,,,,,231.82613679999486,232.32760590000544,,457806,001,2023-08-06_14h27.33.738,magic_trick,2023.1.3,164.80627837118396,
128,0,128,0,,,,,,,,,,,,,,,,,,,233.32390020001912,233.83054580003954,,457806,001,2023-08-06_14h27.33.738,magic_trick,2023.1.3,164.80627837118396,
129,0,129,0,,,,,,,,,,,,,,,,,,,234.82556379999733,235.328218700015,,457806,001,2023-08-06_14h27.33.738,magic_trick,2023.1.3,164.80627837118396,
130,0,130,0,,,,,,,,,,,,,,,,,,,236.3236353000393,236.82935130002443,,457806,001,2023-08-06_14h27.33.738,magic_trick,2023.1.3,164.80627837118396,
131,0,131,0,,,,,,,,,,,,,,,,,,,237.82420650002314,238.33136469998863,,457806,001,2023-08-06_14h27.33.738,magic_trick,2023.1.3,164.80627837118396,
132,0,132,0,,,,,,,,,,,,,,,,,,,239.3264906000113,239.82801060000202,,457806,001,2023-08-06_14h27.33.738,magic_trick,2023.1.3,164.80627837118396,
133,0,133,0,,,,,,,,,,,,,,,,,,,240.8230672000209,241.33041220001178,,457806,001,2023-08-06_14h27.33.738,magic_trick,2023.1.3,164.80627837118396,
134,0,134,0,,,,,,,,,,,,,,,,,,,242.32479899999453,242.82737810001709,,457806,001,2023-08-06_14h27.33.738,magic_trick,2023.1.3,164.80627837118396,
135,0,135,0,,,,,,,,,,,,,,,,,,,243.8289012000314,244.3300185999833,,457806,001,2023-08-06_14h27.33.738,magic_trick,2023.1.3,164.80627837118396,
136,0,136,0,,,,,,,,,,,,,,,,,,,245.32501030003186,245.8270763999899,,457806,001,2023-08-06_14h27.33.738,magic_trick,2023.1.3,164.80627837118396,
137,0,137,0,,,,,,,,,,,,,,,,,,,246.82796530000633,247.32761069998378,,457806,001,2023-08-06_14h27.33.738,magic_trick,2023.1.3,164.80627837118396,
138,0,138,0,,,,,,,,,,,,,,,,,,,248.32902840001043,248.8300828000065,,457806,001,2023-08-06_14h27.33.738,magic_trick,2023.1.3,164.80627837118396,
139,0,139,0,,,,,,,,,,,,,,,,,,,249.82550470001297,250.3327228000271,,457806,001,2023-08-06_14h27.33.738,magic_trick,2023.1.3,164.80627837118396,
140,0,140,0,,,,,,,,,,,,,,,,,,,251.32833210000535,251.8312493999838,,457806,001,2023-08-06_14h27.33.738,magic_trick,2023.1.3,164.80627837118396,
141,0,141,0,,,,,,,,,,,,,,,,,,,252.82600719999755,253.32872180000413,,457806,001,2023-08-06_14h27.33.738,magic_trick,2023.1.3,164.80627837118396,
142,0,142,0,,,,,,,,,,,,,,,,,,,254.32351469999412,254.83132980001392,,457806,001,2023-08-06_14h27.33.738,magic_trick,2023.1.3,164.80627837118396,
143,0,143,0,,,,,,,,,,,,,,,,,,,255.8266628999845,256.3285094000166,,457806,001,2023-08-06_14h27.33.738,magic_trick,2023.1.3,164.80627837118396,
144,0,144,0,,,,,,,,,,,,,,,,,,,257.32368540001335,257.8299801000394,,457806,001,2023-08-06_14h27.33.738,magic_trick,2023.1.3,164.80627837118396,
145,0,145,0,,,,,,,,,,,,,,,,,,,258.82468489999883,259.33446370001184,,457806,001,2023-08-06_14h27.33.738,magic_trick,2023.1.3,164.80627837118396,
146,0,146,0,,,,,,,,,,,,,,,,,,,260.32332890003454,260.8416397999972,,457806,001,2023-08-06_14h27.33.738,magic_trick,2023.1.3,164.80627837118396,
147,0,147,0,,,,,,,,,,,,,,,,,,,261.824107500026,262.3315666000126,,457806,001,2023-08-06_14h27.33.738,magic_trick,2023.1.3,164.80627837118396,
148,0,148,0,,,,,,,,,,,,,,,,,,,263.32639890001155,263.82775410002796,,457806,001,2023-08-06_14h27.33.738,magic_trick,2023.1.3,164.80627837118396,
149,0,149,0,,,,,,,,,,,,,,,,,,,264.8282230999903,265.3314074000227,,457806,001,2023-08-06_14h27.33.738,magic_trick,2023.1.3,164.80627837118396,
150,0,150,0,,,,,,,,,,,,,,,,,,,266.3257662000251,266.8278080000309,,457806,001,2023-08-06_14h27.33.738,magic_trick,2023.1.3,164.80627837118396,
151,0,151,0,,,,,,,,,,,,,,,,,,,267.8282758999849,268.3297913999995,,457806,001,2023-08-06_14h27.33.738,magic_trick,2023.1.3,164.80627837118396,
152,0,152,0,,,,,,,,,,,,,,,,,,,269.32489620003616,269.8346743999864,,457806,001,2023-08-06_14h27.33.738,magic_trick,2023.1.3,164.80627837118396,
153,0,153,0,,,,,,,,,,,,,,,,,,,270.82359480002197,271.330395099998,,457806,001,2023-08-06_14h27.33.738,magic_trick,2023.1.3,164.80627837118396,
154,0,154,0,,,,,,,,,,,,,,,,,,,272.32506100001046,272.8314660000033,,457806,001,2023-08-06_14h27.33.738,magic_trick,2023.1.3,164.80627837118396,
155,0,155,0,,,,,,,,,,,,,,,,,,,273.8260254000197,274.32858750002924,,457806,001,2023-08-06_14h27.33.738,magic_trick,2023.1.3,164.80627837118396,
156,0,156,0,,,,,,,,,,,,,,,,,,,275.3251586999977,275.83122049999656,,457806,001,2023-08-06_14h27.33.738,magic_trick,2023.1.3,164.80627837118396,
157,0,157,0,,,,,,,,,,,,,,,,,,,276.8262059999979,277.3280475999927,,457806,001,2023-08-06_14h27.33.738,magic_trick,2023.1.3,164.80627837118396,
158,0,158,0,,,,,,,,,,,,,,,,,,,278.3285036000307,278.8306416000123,,457806,001,2023-08-06_14h27.33.738,magic_trick,2023.1.3,164.80627837118396,
159,0,159,0,,,,,,,,,,,,,,,,,,,279.8254639999941,280.3440166999935,,457806,001,2023-08-06_14h27.33.738,magic_trick,2023.1.3,164.80627837118396,
160,0,160,0,,,,,,,,,,,,,,,,,,,281.32529599999543,281.83418679999886,,457806,001,2023-08-06_14h27.33.738,magic_trick,2023.1.3,164.80627837118396,
161,0,161,0,,,,,,,,,,,,,,,,,,,282.8243492000038,283.3320464999997,,457806,001,2023-08-06_14h27.33.738,magic_trick,2023.1.3,164.80627837118396,
162,0,162,0,,,,,,,,,,,,,,,,,,,284.32681960001355,284.8277578999987,,457806,001,2023-08-06_14h27.33.738,magic_trick,2023.1.3,164.80627837118396,
163,0,163,0,,,,,,,,,,,,,,,,,,,285.8239632000332,286.3320882000262,,457806,001,2023-08-06_14h27.33.738,magic_trick,2023.1.3,164.80627837118396,
164,0,164,0,,,,,,,,,,,,,,,,,,,287.32669650000753,287.8271437000367,,457806,001,2023-08-06_14h27.33.738,magic_trick,2023.1.3,164.80627837118396,
165,0,165,0,,,,,,,,,,,,,,,,,,,288.828235700028,289.3303562999936,,457806,001,2023-08-06_14h27.33.738,magic_trick,2023.1.3,164.80627837118396,
166,0,166,0,,,,,,,,,,,,,,,,,,,290.32514919998357,290.83471640001517,,457806,001,2023-08-06_14h27.33.738,magic_trick,2023.1.3,164.80627837118396,
167,0,167,0,,,,,,,,,,,,,,,,,,,291.8238188000396,292.3418877000222,,457806,001,2023-08-06_14h27.33.738,magic_trick,2023.1.3,164.80627837118396,
168,0,168,0,,,,,,,,,,,,,,,,,,,293.32378450001124,293.83308780001244,,457806,001,2023-08-06_14h27.33.738,magic_trick,2023.1.3,164.80627837118396,
169,0,169,0,,,,,,,,,,,,,,,,,,,294.8278518000152,295.33047250000527,,457806,001,2023-08-06_14h27.33.738,magic_trick,2023.1.3,164.80627837118396,
170,0,170,0,,,,,,,,,,,,,,,,,,,296.32541960000526,296.82863820000784,,457806,001,2023-08-06_14h27.33.738,magic_trick,2023.1.3,164.80627837118396,
171,0,171,0,,,,,,,,,,,,,,,,,,,297.82388670003274,298.3270530999871,,457806,001,2023-08-06_14h27.33.738,magic_trick,2023.1.3,164.80627837118396,
172,0,172,0,,,,,,,,,,,,,,,,,,,299.3277599000139,299.8277405999834,,457806,001,2023-08-06_14h27.33.738,magic_trick,2023.1.3,164.80627837118396,
173,0,173,0,,,,,,,,,,,,,,,,,,,300.8248343000305,301.33011089998763,,457806,001,2023-08-06_14h27.33.738,magic_trick,2023.1.3,164.80627837118396,
174,0,174,0,,,,,,,,,,,,,,,,,,,302.3249219999998,302.8329438000219,,457806,001,2023-08-06_14h27.33.738,magic_trick,2023.1.3,164.80627837118396,
175,0,175,0,,,,,,,,,,,,,,,,,,,303.82768580003176,304.3296374999918,,457806,001,2023-08-06_14h27.33.738,magic_trick,2023.1.3,164.80627837118396,
176,0,176,0,,,,,,,,,,,,,,,,,,,305.3244549999945,305.8319823000347,,457806,001,2023-08-06_14h27.33.738,magic_trick,2023.1.3,164.80627837118396,
177,0,177,0,,,,,,,,,,,,,,,,,,,306.8267849999829,307.3285702000139,,457806,001,2023-08-06_14h27.33.738,magic_trick,2023.1.3,164.80627837118396,
178,0,178,0,,,,,,,,,,,,,,,,,,,308.32333789998665,308.83112970000366,,457806,001,2023-08-06_14h27.33.738,magic_trick,2023.1.3,164.80627837118396,
179,0,179,0,,,,,,,,,,,,,,,,,,,309.82597639999585,310.326808599988,,457806,001,2023-08-06_14h27.33.738,magic_trick,2023.1.3,164.80627837118396,
