trials.thisRepN,trials.thisTrialN,trials.thisN,trials.thisIndex,text_2.started,key_resp.started,key_resp.keys,key_resp.rt,key_resp.duration,key_resp_2.started,card_1.started,card_2.started,card_3.started,card_4.started,card_5.started,card_6.started,card_7.started,card_8.started,card_9.started,key_resp_2.keys,key_resp_2.rt,key_resp_2.duration,card_shown.started,card_shown.stopped,participant,session,date,expName,psychopyVersion,frameRate,
,,,,18.545341600023676,18.545341600023676,space,6.870076699997298,None,,,,,,,,,,,,,,,,647514,001,2023-07-30_13h26.45.823,magic_trick,2023.1.3,157.44609823859403,
,,,,,,,,,25.576677400036715,25.576677400036715,25.576677400036715,25.576677400036715,25.576677400036715,25.576677400036715,25.576677400036715,25.576677400036715,25.576677400036715,25.576677400036715,space,15.415074700023979,None,,,647514,001,2023-07-30_13h26.45.823,magic_trick,2023.1.3,157.44609823859403,
0,0,0,0,,,,,,,,,,,,,,,,,,,41.29985489998944,,647514,001,2023-07-30_13h26.45.823,magic_trick,2023.1.3,157.44609823859403,
1,0,1,0,,,,,,,,,,,,,,,,,,,42.894539000000805,44.201935500022955,647514,001,2023-07-30_13h26.45.823,magic_trick,2023.1.3,157.44609823859403,
2,0,2,0,,,,,,,,,,,,,,,,,,,44.500272699981,,647514,001,2023-07-30_13h26.45.823,magic_trick,2023.1.3,157.44609823859403,
3,0,3,0,,,,,,,,,,,,,,,,,,,46.099369600007776,,647514,001,2023-07-30_13h26.45.823,magic_trick,2023.1.3,157.44609823859403,
4,0,4,0,,,,,,,,,,,,,,,,,,,47.69400379998842,49.00113330001477,647514,001,2023-07-30_13h26.45.823,magic_trick,2023.1.3,157.44609823859403,
5,0,5,0,,,,,,,,,,,,,,,,,,,49.29850560001796,,647514,001,2023-07-30_13h26.45.823,magic_trick,2023.1.3,157.44609823859403,
6,0,6,0,,,,,,,,,,,,,,,,,,,50.89922249998199,,647514,001,2023-07-30_13h26.45.823,magic_trick,2023.1.3,157.44609823859403,
7,0,7,0,,,,,,,,,,,,,,,,,,,52.49395869998261,53.799099800002296,647514,001,2023-07-30_13h26.45.823,magic_trick,2023.1.3,157.44609823859403,
8,0,8,0,,,,,,,,,,,,,,,,,,,54.096501299995,,647514,001,2023-07-30_13h26.45.823,magic_trick,2023.1.3,157.44609823859403,
9,0,9,0,,,,,,,,,,,,,,,,,,,55.698788699985016,57.00227759999689,647514,001,2023-07-30_13h26.45.823,magic_trick,2023.1.3,157.44609823859403,
10,0,10,0,,,,,,,,,,,,,,,,,,,57.29578600003151,58.60130660003051,647514,001,2023-07-30_13h26.45.823,magic_trick,2023.1.3,157.44609823859403,
11,0,11,0,,,,,,,,,,,,,,,,,,,58.89627060003113,,647514,001,2023-07-30_13h26.45.823,magic_trick,2023.1.3,157.44609823859403,
12,0,12,0,,,,,,,,,,,,,,,,,,,60.49572420003824,,647514,001,2023-07-30_13h26.45.823,magic_trick,2023.1.3,157.44609823859403,
13,0,13,0,,,,,,,,,,,,,,,,,,,62.09458400000585,63.39905270002782,647514,001,2023-07-30_13h26.45.823,magic_trick,2023.1.3,157.44609823859403,
14,0,14,0,,,,,,,,,,,,,,,,,,,63.69615319999866,65.0009661000222,647514,001,2023-07-30_13h26.45.823,magic_trick,2023.1.3,157.44609823859403,
15,0,15,0,,,,,,,,,,,,,,,,,,,65.29802360001486,,647514,001,2023-07-30_13h26.45.823,magic_trick,2023.1.3,157.44609823859403,
16,0,16,0,,,,,,,,,,,,,,,,,,,66.89564940001583,68.20407490001526,647514,001,2023-07-30_13h26.45.823,magic_trick,2023.1.3,157.44609823859403,
17,0,17,0,,,,,,,,,,,,,,,,,,,68.49563439999474,69.8035517000244,647514,001,2023-07-30_13h26.45.823,magic_trick,2023.1.3,157.44609823859403,
18,0,18,0,,,,,,,,,,,,,,,,,,,70.09517879999476,71.40306189999683,647514,001,2023-07-30_13h26.45.823,magic_trick,2023.1.3,157.44609823859403,
19,0,19,0,,,,,,,,,,,,,,,,,,,71.69458120001946,73.00218970002607,647514,001,2023-07-30_13h26.45.823,magic_trick,2023.1.3,157.44609823859403,
20,0,20,0,,,,,,,,,,,,,,,,,,,73.29953050002223,,647514,001,2023-07-30_13h26.45.823,magic_trick,2023.1.3,157.44609823859403,
21,0,21,0,,,,,,,,,,,,,,,,,,,74.89818299998296,76.20229400001699,647514,001,2023-07-30_13h26.45.823,magic_trick,2023.1.3,157.44609823859403,
22,0,22,0,,,,,,,,,,,,,,,,,,,76.49938130000373,,647514,001,2023-07-30_13h26.45.823,magic_trick,2023.1.3,157.44609823859403,
23,0,23,0,,,,,,,,,,,,,,,,,,,78.09581790002994,79.40175479999743,647514,001,2023-07-30_13h26.45.823,magic_trick,2023.1.3,157.44609823859403,
24,0,24,0,,,,,,,,,,,,,,,,,,,79.69921490002889,,647514,001,2023-07-30_13h26.45.823,magic_trick,2023.1.3,157.44609823859403,
25,0,25,0,,,,,,,,,,,,,,,,,,,81.29895399999805,,647514,001,2023-07-30_13h26.45.823,magic_trick,2023.1.3,157.44609823859403,
26,0,26,0,,,,,,,,,,,,,,,,,,,82.89715849998174,,647514,001,2023-07-30_13h26.45.823,magic_trick,2023.1.3,157.44609823859403,
27,0,27,0,,,,,,,,,,,,,,,,,,,84.49533689999953,85.80280130001483,647514,001,2023-07-30_13h26.45.823,magic_trick,2023.1.3,157.44609823859403,
28,0,28,0,,,,,,,,,,,,,,,,,,,86.09432079998078,87.40235079999547,647514,001,2023-07-30_13h26.45.823,magic_trick,2023.1.3,157.44609823859403,
29,0,29,0,,,,,,,,,,,,,,,,,,,87.69344679999631,88.9974583000294,647514,001,2023-07-30_13h26.45.823,magic_trick,2023.1.3,157.44609823859403,
30,0,30,0,,,,,,,,,,,,,,,,,,,89.29454259999329,90.60057670000242,647514,001,2023-07-30_13h26.45.823,magic_trick,2023.1.3,157.44609823859403,
31,0,31,0,,,,,,,,,,,,,,,,,,,90.89798160002101,,647514,001,2023-07-30_13h26.45.823,magic_trick,2023.1.3,157.44609823859403,
32,0,32,0,,,,,,,,,,,,,,,,,,,92.4951732000336,93.80658380000386,647514,001,2023-07-30_13h26.45.823,magic_trick,2023.1.3,157.44609823859403,
33,0,33,0,,,,,,,,,,,,,,,,,,,94.09831840003608,,647514,001,2023-07-30_13h26.45.823,magic_trick,2023.1.3,157.44609823859403,
34,0,34,0,,,,,,,,,,,,,,,,,,,95.6967949999962,,647514,001,2023-07-30_13h26.45.823,magic_trick,2023.1.3,157.44609823859403,
35,0,35,0,,,,,,,,,,,,,,,,,,,97.29559540003538,98.6033815999981,647514,001,2023-07-30_13h26.45.823,magic_trick,2023.1.3,157.44609823859403,
36,0,36,0,,,,,,,,,,,,,,,,,,,98.89489789999789,100.20207830000436,647514,001,2023-07-30_13h26.45.823,magic_trick,2023.1.3,157.44609823859403,
37,0,37,0,,,,,,,,,,,,,,,,,,,100.49722200003453,101.80359170003794,647514,001,2023-07-30_13h26.45.823,magic_trick,2023.1.3,157.44609823859403,
38,0,38,0,,,,,,,,,,,,,,,,,,,102.09505619999254,103.40229080000427,647514,001,2023-07-30_13h26.45.823,magic_trick,2023.1.3,157.44609823859403,
39,0,39,0,,,,,,,,,,,,,,,,,,,103.69537309999578,105.00315519998549,647514,001,2023-07-30_13h26.45.823,magic_trick,2023.1.3,157.44609823859403,
40,0,40,0,,,,,,,,,,,,,,,,,,,105.29456040001241,106.60248739999952,647514,001,2023-07-30_13h26.45.823,magic_trick,2023.1.3,157.44609823859403,
41,0,41,0,,,,,,,,,,,,,,,,,,,106.90062189998571,,647514,001,2023-07-30_13h26.45.823,magic_trick,2023.1.3,157.44609823859403,
42,0,42,0,,,,,,,,,,,,,,,,,,,108.50008989998605,,647514,001,2023-07-30_13h26.45.823,magic_trick,2023.1.3,157.44609823859403,
43,0,43,0,,,,,,,,,,,,,,,,,,,110.09919480001554,,647514,001,2023-07-30_13h26.45.823,magic_trick,2023.1.3,157.44609823859403,
44,0,44,0,,,,,,,,,,,,,,,,,,,111.6964610000141,113.00324550003279,647514,001,2023-07-30_13h26.45.823,magic_trick,2023.1.3,157.44609823859403,
45,0,45,0,,,,,,,,,,,,,,,,,,,113.2947123000049,114.60016239999095,647514,001,2023-07-30_13h26.45.823,magic_trick,2023.1.3,157.44609823859403,
46,0,46,0,,,,,,,,,,,,,,,,,,,114.89753840002231,,647514,001,2023-07-30_13h26.45.823,magic_trick,2023.1.3,157.44609823859403,
47,0,47,0,,,,,,,,,,,,,,,,,,,116.49398269999074,117.80215220001992,647514,001,2023-07-30_13h26.45.823,magic_trick,2023.1.3,157.44609823859403,
48,0,48,0,,,,,,,,,,,,,,,,,,,118.09958560002269,,647514,001,2023-07-30_13h26.45.823,magic_trick,2023.1.3,157.44609823859403,
49,0,49,0,,,,,,,,,,,,,,,,,,,119.69780810002703,,647514,001,2023-07-30_13h26.45.823,magic_trick,2023.1.3,157.44609823859403,
