trials.thisRepN,trials.thisTrialN,trials.thisN,trials.thisIndex,text_2.started,key_resp.started,key_resp.keys,key_resp.rt,key_resp.duration,key_resp_2.started,card_1.started,card_2.started,card_3.started,card_4.started,card_5.started,card_6.started,card_7.started,card_8.started,card_9.started,key_resp_2.keys,key_resp_2.rt,key_resp_2.duration,card_shown.started,card_shown.stopped,participant,session,date,expName,psychopyVersion,frameRate,
,,,,8.073601600015536,8.073601600015536,space,15.477156499982812,None,,,,,,,,,,,,,,,,704870,001,2023-07-30_12h46.04.757,magic_trick,2023.1.3,163.0119388499949,
,,,,,,,,,23.71945279999636,23.71945279999636,23.71945279999636,23.71945279999636,23.71945279999636,23.71945279999636,23.71945279999636,23.71945279999636,23.71945279999636,23.71945279999636,space,6.7269256000290625,None,,,704870,001,2023-07-30_12h46.04.757,magic_trick,2023.1.3,163.0119388499949,
0,0,0,0,,,,,,,,,,,,,,,,,,,30.75243460002821,,704870,001,2023-07-30_12h46.04.757,magic_trick,2023.1.3,163.0119388499949,
1,0,1,0,,,,,,,,,,,,,,,,,,,32.353621000016574,,704870,001,2023-07-30_12h46.04.757,magic_trick,2023.1.3,163.0119388499949,
2,0,2,0,,,,,,,,,,,,,,,,,,,33.952973300009035,35.25733739999123,704870,001,2023-07-30_12h46.04.757,magic_trick,2023.1.3,163.0119388499949,
3,0,3,0,,,,,,,,,,,,,,,,,,,35.55464760004543,,704870,001,2023-07-30_12h46.04.757,magic_trick,2023.1.3,163.0119388499949,
4,0,4,0,,,,,,,,,,,,,,,,,,,37.15404240001226,,704870,001,2023-07-30_12h46.04.757,magic_trick,2023.1.3,163.0119388499949,
5,0,5,0,,,,,,,,,,,,,,,,,,,38.75282320001861,40.06019570003264,704870,001,2023-07-30_12h46.04.757,magic_trick,2023.1.3,163.0119388499949,
6,0,6,0,,,,,,,,,,,,,,,,,,,40.3518677999964,41.659981000004336,704870,001,2023-07-30_12h46.04.757,magic_trick,2023.1.3,163.0119388499949,
7,0,7,0,,,,,,,,,,,,,,,,,,,41.95173120003892,43.25923140003579,704870,001,2023-07-30_12h46.04.757,magic_trick,2023.1.3,163.0119388499949,
8,0,8,0,,,,,,,,,,,,,,,,,,,43.55023930000607,44.85061640001368,704870,001,2023-07-30_12h46.04.757,magic_trick,2023.1.3,163.0119388499949,
9,0,9,0,,,,,,,,,,,,,,,,,,,45.15376150002703,,704870,001,2023-07-30_12h46.04.757,magic_trick,2023.1.3,163.0119388499949,
10,0,10,0,,,,,,,,,,,,,,,,,,,46.750595599994995,48.0577053000452,704870,001,2023-07-30_12h46.04.757,magic_trick,2023.1.3,163.0119388499949,
11,0,11,0,,,,,,,,,,,,,,,,,,,48.3551288000308,,704870,001,2023-07-30_12h46.04.757,magic_trick,2023.1.3,163.0119388499949,
12,0,12,0,,,,,,,,,,,,,,,,,,,49.954942999989726,,704870,001,2023-07-30_12h46.04.757,magic_trick,2023.1.3,163.0119388499949,
13,0,13,0,,,,,,,,,,,,,,,,,,,51.55410710000433,,704870,001,2023-07-30_12h46.04.757,magic_trick,2023.1.3,163.0119388499949,
14,0,14,0,,,,,,,,,,,,,,,,,,,53.15260790003231,54.45530999999028,704870,001,2023-07-30_12h46.04.757,magic_trick,2023.1.3,163.0119388499949,
15,0,15,0,,,,,,,,,,,,,,,,,,,54.752644399995916,56.06003789999522,704870,001,2023-07-30_12h46.04.757,magic_trick,2023.1.3,163.0119388499949,
16,0,16,0,,,,,,,,,,,,,,,,,,,56.352762800001074,57.659508700016886,704870,001,2023-07-30_12h46.04.757,magic_trick,2023.1.3,163.0119388499949,
17,0,17,0,,,,,,,,,,,,,,,,,,,57.95091300003696,59.258008900040295,704870,001,2023-07-30_12h46.04.757,magic_trick,2023.1.3,163.0119388499949,
18,0,18,0,,,,,,,,,,,,,,,,,,,59.5515784000163,60.85706599999685,704870,001,2023-07-30_12h46.04.757,magic_trick,2023.1.3,163.0119388499949,
19,0,19,0,,,,,,,,,,,,,,,,,,,61.15473320003366,,704870,001,2023-07-30_12h46.04.757,magic_trick,2023.1.3,163.0119388499949,
20,0,20,0,,,,,,,,,,,,,,,,,,,62.75307880004402,64.05983790004393,704870,001,2023-07-30_12h46.04.757,magic_trick,2023.1.3,163.0119388499949,
21,0,21,0,,,,,,,,,,,,,,,,,,,64.35156500001904,65.6584466000204,704870,001,2023-07-30_12h46.04.757,magic_trick,2023.1.3,163.0119388499949,
22,0,22,0,,,,,,,,,,,,,,,,,,,65.94989590003388,67.25733900000341,704870,001,2023-07-30_12h46.04.757,magic_trick,2023.1.3,163.0119388499949,
23,0,23,0,,,,,,,,,,,,,,,,,,,67.55501589999767,,704870,001,2023-07-30_12h46.04.757,magic_trick,2023.1.3,163.0119388499949,
24,0,24,0,,,,,,,,,,,,,,,,,,,69.15366270003142,70.45622240001103,704870,001,2023-07-30_12h46.04.757,magic_trick,2023.1.3,163.0119388499949,
25,0,25,0,,,,,,,,,,,,,,,,,,,70.75388999999268,,704870,001,2023-07-30_12h46.04.757,magic_trick,2023.1.3,163.0119388499949,
26,0,26,0,,,,,,,,,,,,,,,,,,,72.35258609999437,73.65965039998991,704870,001,2023-07-30_12h46.04.757,magic_trick,2023.1.3,163.0119388499949,
27,0,27,0,,,,,,,,,,,,,,,,,,,73.95102480001515,75.25818310002796,704870,001,2023-07-30_12h46.04.757,magic_trick,2023.1.3,163.0119388499949,
28,0,28,0,,,,,,,,,,,,,,,,,,,75.55600849998882,,704870,001,2023-07-30_12h46.04.757,magic_trick,2023.1.3,163.0119388499949,
29,0,29,0,,,,,,,,,,,,,,,,,,,77.1540925000445,,704870,001,2023-07-30_12h46.04.757,magic_trick,2023.1.3,163.0119388499949,
30,0,30,0,,,,,,,,,,,,,,,,,,,78.75320890004514,80.06034440000076,704870,001,2023-07-30_12h46.04.757,magic_trick,2023.1.3,163.0119388499949,
31,0,31,0,,,,,,,,,,,,,,,,,,,80.35201070003677,81.65997860004427,704870,001,2023-07-30_12h46.04.757,magic_trick,2023.1.3,163.0119388499949,
32,0,32,0,,,,,,,,,,,,,,,,,,,81.95132779999403,83.25970300001791,704870,001,2023-07-30_12h46.04.757,magic_trick,2023.1.3,163.0119388499949,
33,0,33,0,,,,,,,,,,,,,,,,,,,83.55105780001031,84.85808850004105,704870,001,2023-07-30_12h46.04.757,magic_trick,2023.1.3,163.0119388499949,
34,0,34,0,,,,,,,,,,,,,,,,,,,85.15627710003173,,704870,001,2023-07-30_12h46.04.757,magic_trick,2023.1.3,163.0119388499949,
35,0,35,0,,,,,,,,,,,,,,,,,,,86.75599400000647,,704870,001,2023-07-30_12h46.04.757,magic_trick,2023.1.3,163.0119388499949,
36,0,36,0,,,,,,,,,,,,,,,,,,,88.35535210004309,,704870,001,2023-07-30_12h46.04.757,magic_trick,2023.1.3,163.0119388499949,
37,0,37,0,,,,,,,,,,,,,,,,,,,89.95495059998939,,704870,001,2023-07-30_12h46.04.757,magic_trick,2023.1.3,163.0119388499949,
38,0,38,0,,,,,,,,,,,,,,,,,,,91.55452240002342,,704870,001,2023-07-30_12h46.04.757,magic_trick,2023.1.3,163.0119388499949,
39,0,39,0,,,,,,,,,,,,,,,,,,,93.15215760003775,94.45748640003148,704870,001,2023-07-30_12h46.04.757,magic_trick,2023.1.3,163.0119388499949,
40,0,40,0,,,,,,,,,,,,,,,,,,,94.75495999999112,,704870,001,2023-07-30_12h46.04.757,magic_trick,2023.1.3,163.0119388499949,
41,0,41,0,,,,,,,,,,,,,,,,,,,96.3524150000303,,704870,001,2023-07-30_12h46.04.757,magic_trick,2023.1.3,163.0119388499949,
42,0,42,0,,,,,,,,,,,,,,,,,,,97.95287929999176,,704870,001,2023-07-30_12h46.04.757,magic_trick,2023.1.3,163.0119388499949,
43,0,43,0,,,,,,,,,,,,,,,,,,,99.55265870003495,100.86091610003496,704870,001,2023-07-30_12h46.04.757,magic_trick,2023.1.3,163.0119388499949,
44,0,44,0,,,,,,,,,,,,,,,,,,,101.15258630004246,102.4610961000435,704870,001,2023-07-30_12h46.04.757,magic_trick,2023.1.3,163.0119388499949,
45,0,45,0,,,,,,,,,,,,,,,,,,,102.75274700002046,104.06008090003161,704870,001,2023-07-30_12h46.04.757,magic_trick,2023.1.3,163.0119388499949,
46,0,46,0,,,,,,,,,,,,,,,,,,,104.35340449999785,105.65679350000573,704870,001,2023-07-30_12h46.04.757,magic_trick,2023.1.3,163.0119388499949,
47,0,47,0,,,,,,,,,,,,,,,,,,,105.95387450000271,,704870,001,2023-07-30_12h46.04.757,magic_trick,2023.1.3,163.0119388499949,
48,0,48,0,,,,,,,,,,,,,,,,,,,107.5516022000229,108.85751030000392,704870,001,2023-07-30_12h46.04.757,magic_trick,2023.1.3,163.0119388499949,
49,0,49,0,,,,,,,,,,,,,,,,,,,109.15496980003081,110.45334070001263,704870,001,2023-07-30_12h46.04.757,magic_trick,2023.1.3,163.0119388499949,
