trials.thisRepN,trials.thisTrialN,trials.thisN,trials.thisIndex,text_2.started,key_resp.started,key_resp.keys,key_resp.rt,key_resp.duration,key_resp_2.started,card_1.started,card_2.started,card_3.started,card_4.started,card_5.started,card_6.started,card_7.started,card_8.started,card_9.started,key_resp_2.keys,key_resp_2.rt,key_resp_2.duration,card_shown.started,card_shown.stopped,participant,session,date,expName,psychopyVersion,frameRate,
,,,,11.291556000011042,11.291556000011042,space,6.010089199990034,None,,,,,,,,,,,,,,,,887472,001,2023-07-30_18h18.12.860,magic_trick,2023.1.3,160.57859686899616,
,,,,,,,,,17.45757979998598,17.45757979998598,17.45757979998598,17.45757979998598,17.45757979998598,17.45757979998598,17.45757979998598,17.45757979998598,17.45757979998598,17.45757979998598,space,2.2756130000343546,None,,,887472,001,2023-07-30_18h18.12.860,magic_trick,2023.1.3,160.57859686899616,
0,0,0,0,,,,,,,,,,,,,,,,,,,20.032892399991397,21.335000800027046,887472,001,2023-07-30_18h18.12.860,magic_trick,2023.1.3,160.57859686899616,
1,0,1,0,,,,,,,,,,,,,,,,,,,21.633342700020876,22.939913699985482,887472,001,2023-07-30_18h18.12.860,magic_trick,2023.1.3,160.57859686899616,
2,0,2,0,,,,,,,,,,,,,,,,,,,23.23262500000419,24.539051300031133,887472,001,2023-07-30_18h18.12.860,magic_trick,2023.1.3,160.57859686899616,
3,0,3,0,,,,,,,,,,,,,,,,,,,24.836263000033796,26.13782629999332,887472,001,2023-07-30_18h18.12.860,magic_trick,2023.1.3,160.57859686899616,
4,0,4,0,,,,,,,,,,,,,,,,,,,26.43490809999639,27.740012800029945,887472,001,2023-07-30_18h18.12.860,magic_trick,2023.1.3,160.57859686899616,
5,0,5,0,,,,,,,,,,,,,,,,,,,28.037398800021037,,887472,001,2023-07-30_18h18.12.860,magic_trick,2023.1.3,160.57859686899616,
6,0,6,0,,,,,,,,,,,,,,,,,,,29.634183200018015,30.936017200001515,887472,001,2023-07-30_18h18.12.860,magic_trick,2023.1.3,160.57859686899616,
7,0,7,0,,,,,,,,,,,,,,,,,,,31.23424379999051,32.54124930000398,887472,001,2023-07-30_18h18.12.860,magic_trick,2023.1.3,160.57859686899616,
8,0,8,0,,,,,,,,,,,,,,,,,,,32.83286249998491,34.140447499987204,887472,001,2023-07-30_18h18.12.860,magic_trick,2023.1.3,160.57859686899616,
9,0,9,0,,,,,,,,,,,,,,,,,,,34.43784000002779,,887472,001,2023-07-30_18h18.12.860,magic_trick,2023.1.3,160.57859686899616,
10,0,10,0,,,,,,,,,,,,,,,,,,,36.03615759999957,37.338514400005806,887472,001,2023-07-30_18h18.12.860,magic_trick,2023.1.3,160.57859686899616,
11,0,11,0,,,,,,,,,,,,,,,,,,,37.63581120001618,38.939457900007255,887472,001,2023-07-30_18h18.12.860,magic_trick,2023.1.3,160.57859686899616,
12,0,12,0,,,,,,,,,,,,,,,,,,,39.23659590003081,,887472,001,2023-07-30_18h18.12.860,magic_trick,2023.1.3,160.57859686899616,
13,0,13,0,,,,,,,,,,,,,,,,,,,40.83512990002055,42.15312229999108,887472,001,2023-07-30_18h18.12.860,magic_trick,2023.1.3,160.57859686899616,
14,0,14,0,,,,,,,,,,,,,,,,,,,42.43197610002244,43.73954949999461,887472,001,2023-07-30_18h18.12.860,magic_trick,2023.1.3,160.57859686899616,
15,0,15,0,,,,,,,,,,,,,,,,,,,44.030643599980976,45.33541120000882,887472,001,2023-07-30_18h18.12.860,magic_trick,2023.1.3,160.57859686899616,
16,0,16,0,,,,,,,,,,,,,,,,,,,45.632814300013706,46.93528390000574,887472,001,2023-07-30_18h18.12.860,magic_trick,2023.1.3,160.57859686899616,
17,0,17,0,,,,,,,,,,,,,,,,,,,47.23275650001597,48.533837000024505,887472,001,2023-07-30_18h18.12.860,magic_trick,2023.1.3,160.57859686899616,
18,0,18,0,,,,,,,,,,,,,,,,,,,48.837568400020245,,887472,001,2023-07-30_18h18.12.860,magic_trick,2023.1.3,160.57859686899616,
19,0,19,0,,,,,,,,,,,,,,,,,,,50.43576610001037,51.742668999999296,887472,001,2023-07-30_18h18.12.860,magic_trick,2023.1.3,160.57859686899616,
20,0,20,0,,,,,,,,,,,,,,,,,,,52.034106000035536,53.34122760000173,887472,001,2023-07-30_18h18.12.860,magic_trick,2023.1.3,160.57859686899616,
21,0,21,0,,,,,,,,,,,,,,,,,,,53.63221670000348,54.939685499994084,887472,001,2023-07-30_18h18.12.860,magic_trick,2023.1.3,160.57859686899616,
22,0,22,0,,,,,,,,,,,,,,,,,,,55.23682779999217,,887472,001,2023-07-30_18h18.12.860,magic_trick,2023.1.3,160.57859686899616,
23,0,23,0,,,,,,,,,,,,,,,,,,,56.83496810001088,58.142664599989075,887472,001,2023-07-30_18h18.12.860,magic_trick,2023.1.3,160.57859686899616,
24,0,24,0,,,,,,,,,,,,,,,,,,,58.435332800028846,59.742677100002766,887472,001,2023-07-30_18h18.12.860,magic_trick,2023.1.3,160.57859686899616,
25,0,25,0,,,,,,,,,,,,,,,,,,,60.034051300026476,61.34166869998444,887472,001,2023-07-30_18h18.12.860,magic_trick,2023.1.3,160.57859686899616,
26,0,26,0,,,,,,,,,,,,,,,,,,,61.63305110001238,62.94256150000729,887472,001,2023-07-30_18h18.12.860,magic_trick,2023.1.3,160.57859686899616,
27,0,27,0,,,,,,,,,,,,,,,,,,,63.232421300024725,64.54087550000986,887472,001,2023-07-30_18h18.12.860,magic_trick,2023.1.3,160.57859686899616,
28,0,28,0,,,,,,,,,,,,,,,,,,,64.83198269997956,66.1394156999886,887472,001,2023-07-30_18h18.12.860,magic_trick,2023.1.3,160.57859686899616,
29,0,29,0,,,,,,,,,,,,,,,,,,,66.43659200001275,,887472,001,2023-07-30_18h18.12.860,magic_trick,2023.1.3,160.57859686899616,
30,0,30,0,,,,,,,,,,,,,,,,,,,68.03543659998104,69.34291920001851,887472,001,2023-07-30_18h18.12.860,magic_trick,2023.1.3,160.57859686899616,
31,0,31,0,,,,,,,,,,,,,,,,,,,69.63439309998648,70.93829160003224,887472,001,2023-07-30_18h18.12.860,magic_trick,2023.1.3,160.57859686899616,
32,0,32,0,,,,,,,,,,,,,,,,,,,71.23572420002893,72.5411825000192,887472,001,2023-07-30_18h18.12.860,magic_trick,2023.1.3,160.57859686899616,
33,0,33,0,,,,,,,,,,,,,,,,,,,72.83462540002074,74.14248179999413,887472,001,2023-07-30_18h18.12.860,magic_trick,2023.1.3,160.57859686899616,
34,0,34,0,,,,,,,,,,,,,,,,,,,74.43408410000848,75.73589780001203,887472,001,2023-07-30_18h18.12.860,magic_trick,2023.1.3,160.57859686899616,
35,0,35,0,,,,,,,,,,,,,,,,,,,76.03339090000372,77.34123950003413,887472,001,2023-07-30_18h18.12.860,magic_trick,2023.1.3,160.57859686899616,
36,0,36,0,,,,,,,,,,,,,,,,,,,77.63229779998073,78.9404336999869,887472,001,2023-07-30_18h18.12.860,magic_trick,2023.1.3,160.57859686899616,
37,0,37,0,,,,,,,,,,,,,,,,,,,79.23948679998284,,887472,001,2023-07-30_18h18.12.860,magic_trick,2023.1.3,160.57859686899616,
38,0,38,0,,,,,,,,,,,,,,,,,,,80.83533530001296,82.14071649999823,887472,001,2023-07-30_18h18.12.860,magic_trick,2023.1.3,160.57859686899616,
39,0,39,0,,,,,,,,,,,,,,,,,,,82.43783320003422,,887472,001,2023-07-30_18h18.12.860,magic_trick,2023.1.3,160.57859686899616,
40,0,40,0,,,,,,,,,,,,,,,,,,,84.03540390002308,85.33851460000733,887472,001,2023-07-30_18h18.12.860,magic_trick,2023.1.3,160.57859686899616,
41,0,41,0,,,,,,,,,,,,,,,,,,,85.63581599999452,86.93822150002234,887472,001,2023-07-30_18h18.12.860,magic_trick,2023.1.3,160.57859686899616,
42,0,42,0,,,,,,,,,,,,,,,,,,,87.23547160002636,88.54295720002847,887472,001,2023-07-30_18h18.12.860,magic_trick,2023.1.3,160.57859686899616,
43,0,43,0,,,,,,,,,,,,,,,,,,,88.83632210001815,,887472,001,2023-07-30_18h18.12.860,magic_trick,2023.1.3,160.57859686899616,
44,0,44,0,,,,,,,,,,,,,,,,,,,90.43657499999972,,887472,001,2023-07-30_18h18.12.860,magic_trick,2023.1.3,160.57859686899616,
45,0,45,0,,,,,,,,,,,,,,,,,,,92.0314305999782,93.3365600000252,887472,001,2023-07-30_18h18.12.860,magic_trick,2023.1.3,160.57859686899616,
46,0,46,0,,,,,,,,,,,,,,,,,,,93.63366230000975,94.93907560000662,887472,001,2023-07-30_18h18.12.860,magic_trick,2023.1.3,160.57859686899616,
47,0,47,0,,,,,,,,,,,,,,,,,,,95.23647449997952,,887472,001,2023-07-30_18h18.12.860,magic_trick,2023.1.3,160.57859686899616,
48,0,48,0,,,,,,,,,,,,,,,,,,,96.83353970001917,98.13582219998352,887472,001,2023-07-30_18h18.12.860,magic_trick,2023.1.3,160.57859686899616,
49,0,49,0,,,,,,,,,,,,,,,,,,,98.4334159999853,99.73145720001776,887472,001,2023-07-30_18h18.12.860,magic_trick,2023.1.3,160.57859686899616,
