trials.thisRepN,trials.thisTrialN,trials.thisN,trials.thisIndex,text_2.started,key_resp.started,key_resp.keys,key_resp.rt,key_resp.duration,key_resp_2.started,text_3.started,card_1.started,card_2.started,card_3.started,card_4.started,card_5.started,card_6.started,card_7.started,card_8.started,card_9.started,key_resp_2.keys,key_resp_2.rt,key_resp_2.duration,text.started,key_resp_3.started,key_resp_3.keys,key_resp_3.rt,key_resp_3.duration,text_4.started,polygon_2.started,text_6.started,a_card.started,text_5.started,key_resp_4.started,key_resp_4.keys,key_resp_4.rt,key_resp_4.duration,participant,session,date,expName,psychopyVersion,frameRate,
,,,,7.761297899996862,7.761297899996862,space,15.376086899981601,None,,,,,,,,,,,,,,,,,,,,,,,,,,,,,941860,001,2023-08-04_16h45.58.700,magic_trick,2023.1.3,163.76100068787818,
,,,,,,,,,23.296174700022675,23.296174700022675,23.296174700022675,23.296174700022675,23.296174700022675,23.296174700022675,23.296174700022675,23.296174700022675,23.296174700022675,23.296174700022675,23.296174700022675,space,15.062165100011043,None,,,,,,,,,,,,,,,941860,001,2023-08-04_16h45.58.700,magic_trick,2023.1.3,163.76100068787818,
,,,,,,,,,,,,,,,,,,,,,,,38.36946250000619,38.36946250000619,space,3.594665399985388,None,,,,,,,,,,941860,001,2023-08-04_16h45.58.700,magic_trick,2023.1.3,163.76100068787818,
0,0,0,0,,,,,,,,,,,,,,,,,,,,,,,,,41.97353790001944,41.97353790001944,42.97337280001375,43.490411700011464,,,,,,941860,001,2023-08-04_16h45.58.700,magic_trick,2023.1.3,163.76100068787818,
1,0,1,0,,,,,,,,,,,,,,,,,,,,,,,,,,,44.476793200010434,44.98350410000421,,,,,,941860,001,2023-08-04_16h45.58.700,magic_trick,2023.1.3,163.76100068787818,
2,0,2,0,,,,,,,,,,,,,,,,,,,,,,,,,,,45.97917220002273,46.47983580001164,,,,,,941860,001,2023-08-04_16h45.58.700,magic_trick,2023.1.3,163.76100068787818,
3,0,3,0,,,,,,,,,,,,,,,,,,,,,,,,,,,47.477409800019814,47.983091500005685,,,,,,941860,001,2023-08-04_16h45.58.700,magic_trick,2023.1.3,163.76100068787818,
4,0,4,0,,,,,,,,,,,,,,,,,,,,,,,,,,,48.97315340000205,49.47982900001807,,,,,,941860,001,2023-08-04_16h45.58.700,magic_trick,2023.1.3,163.76100068787818,
5,0,5,0,,,,,,,,,,,,,,,,,,,,,,,,,,,50.47623920001206,50.9815673000121,,,,,,941860,001,2023-08-04_16h45.58.700,magic_trick,2023.1.3,163.76100068787818,
6,0,6,0,,,,,,,,,,,,,,,,,,,,,,,,,,,51.9787653000094,52.479413599998225,,,,,,941860,001,2023-08-04_16h45.58.700,magic_trick,2023.1.3,163.76100068787818,
7,0,7,0,,,,,,,,,,,,,,,,,,,,,,,,,,,53.47750000000815,53.982545300008496,,,,,,941860,001,2023-08-04_16h45.58.700,magic_trick,2023.1.3,163.76100068787818,
8,0,8,0,,,,,,,,,,,,,,,,,,,,,,,,,,,54.97970220001298,55.47940050001489,,,,,,941860,001,2023-08-04_16h45.58.700,magic_trick,2023.1.3,163.76100068787818,
9,0,9,0,,,,,,,,,,,,,,,,,,,,,,,,,,,56.47629650001181,56.98148990000482,,,,,,941860,001,2023-08-04_16h45.58.700,magic_trick,2023.1.3,163.76100068787818,
10,0,10,0,,,,,,,,,,,,,,,,,,,,,,,,,,,57.978513000009116,58.479737300018314,,,,,,941860,001,2023-08-04_16h45.58.700,magic_trick,2023.1.3,163.76100068787818,
11,0,11,0,,,,,,,,,,,,,,,,,,,,,,,,,,,59.476401399995666,59.980504600011045,,,,,,941860,001,2023-08-04_16h45.58.700,magic_trick,2023.1.3,163.76100068787818,
12,0,12,0,,,,,,,,,,,,,,,,,,,,,,,,,,,60.97858460000134,61.478337200009264,,,,,,941860,001,2023-08-04_16h45.58.700,magic_trick,2023.1.3,163.76100068787818,
13,0,13,0,,,,,,,,,,,,,,,,,,,,,,,,,,,62.47813080000924,62.98046640001121,,,,,,941860,001,2023-08-04_16h45.58.700,magic_trick,2023.1.3,163.76100068787818,
14,0,14,0,,,,,,,,,,,,,,,,,,,,,,,,,,,63.97790310002165,64.47828130002017,,,,,,941860,001,2023-08-04_16h45.58.700,magic_trick,2023.1.3,163.76100068787818,
15,0,15,0,,,,,,,,,,,,,,,,,,,,,,,,,,,65.47463530002278,65.9808654000226,,,,,,941860,001,2023-08-04_16h45.58.700,magic_trick,2023.1.3,163.76100068787818,
16,0,16,0,,,,,,,,,,,,,,,,,,,,,,,,,,,66.97751660001813,67.48845380000421,,,,,,941860,001,2023-08-04_16h45.58.700,magic_trick,2023.1.3,163.76100068787818,
17,0,17,0,,,,,,,,,,,,,,,,,,,,,,,,,,,68.47433160000946,68.98048930001096,,,,,,941860,001,2023-08-04_16h45.58.700,magic_trick,2023.1.3,163.76100068787818,
18,0,18,0,,,,,,,,,,,,,,,,,,,,,,,,,,,69.97755560002406,70.48346879999735,,,,,,941860,001,2023-08-04_16h45.58.700,magic_trick,2023.1.3,163.76100068787818,
19,0,19,0,,,,,,,,,,,,,,,,,,,,,,,,,,,71.48015210000449,71.97939240001142,,,,,,941860,001,2023-08-04_16h45.58.700,magic_trick,2023.1.3,163.76100068787818,
20,0,20,0,,,,,,,,,,,,,,,,,,,,,,,,,,,72.9775568000041,73.48313040001085,,,,,,941860,001,2023-08-04_16h45.58.700,magic_trick,2023.1.3,163.76100068787818,
21,0,21,0,,,,,,,,,,,,,,,,,,,,,,,,,,,74.47928810000303,74.97934810002334,,,,,,941860,001,2023-08-04_16h45.58.700,magic_trick,2023.1.3,163.76100068787818,
22,0,22,0,,,,,,,,,,,,,,,,,,,,,,,,,,,75.97773620000225,76.48282090001157,,,,,,941860,001,2023-08-04_16h45.58.700,magic_trick,2023.1.3,163.76100068787818,
23,0,23,0,,,,,,,,,,,,,,,,,,,,,,,,,,,77.4790931000025,77.97978590001003,,,,,,941860,001,2023-08-04_16h45.58.700,magic_trick,2023.1.3,163.76100068787818,
24,0,24,0,,,,,,,,,,,,,,,,,,,,,,,,,,,78.976625100011,79.4825095999986,,,,,,941860,001,2023-08-04_16h45.58.700,magic_trick,2023.1.3,163.76100068787818,
25,0,25,0,,,,,,,,,,,,,,,,,,,,,,,,,,,80.47908610000741,80.97892250001314,,,,,,941860,001,2023-08-04_16h45.58.700,magic_trick,2023.1.3,163.76100068787818,
26,0,26,0,,,,,,,,,,,,,,,,,,,,,,,,,,,81.97776110001723,82.48200109999743,,,,,,941860,001,2023-08-04_16h45.58.700,magic_trick,2023.1.3,163.76100068787818,
27,0,27,0,,,,,,,,,,,,,,,,,,,,,,,,,,,83.4784925999993,83.9781741000188,,,,,,941860,001,2023-08-04_16h45.58.700,magic_trick,2023.1.3,163.76100068787818,
28,0,28,0,,,,,,,,,,,,,,,,,,,,,,,,,,,84.97703160002129,85.48168950001127,,,,,,941860,001,2023-08-04_16h45.58.700,magic_trick,2023.1.3,163.76100068787818,
29,0,29,0,,,,,,,,,,,,,,,,,,,,,,,,,,,86.47859600000083,86.97824560001027,,,,,,941860,001,2023-08-04_16h45.58.700,magic_trick,2023.1.3,163.76100068787818,
30,0,30,0,,,,,,,,,,,,,,,,,,,,,,,,,,,87.97729460001574,88.48221170000033,,,,,,941860,001,2023-08-04_16h45.58.700,magic_trick,2023.1.3,163.76100068787818,
31,0,31,0,,,,,,,,,,,,,,,,,,,,,,,,,,,89.47917070001131,89.98170200001914,,,,,,941860,001,2023-08-04_16h45.58.700,magic_trick,2023.1.3,163.76100068787818,
32,0,32,0,,,,,,,,,,,,,,,,,,,,,,,,,,,90.97499550000066,91.48165460000746,,,,,,941860,001,2023-08-04_16h45.58.700,magic_trick,2023.1.3,163.76100068787818,
33,0,33,0,,,,,,,,,,,,,,,,,,,,,,,,,,,92.47798840000178,92.9789829000074,,,,,,941860,001,2023-08-04_16h45.58.700,magic_trick,2023.1.3,163.76100068787818,
34,0,34,0,,,,,,,,,,,,,,,,,,,,,,,,,,,93.97464970001602,94.48108150000917,,,,,,941860,001,2023-08-04_16h45.58.700,magic_trick,2023.1.3,163.76100068787818,
35,0,35,0,,,,,,,,,,,,,,,,,,,,,,,,,,,95.47785170000861,95.97834699999657,,,,,,941860,001,2023-08-04_16h45.58.700,magic_trick,2023.1.3,163.76100068787818,
36,0,36,0,,,,,,,,,,,,,,,,,,,,,,,,,,,96.97478849999607,97.48098550000577,,,,,,941860,001,2023-08-04_16h45.58.700,magic_trick,2023.1.3,163.76100068787818,
37,0,37,0,,,,,,,,,,,,,,,,,,,,,,,,,,,98.4778312999988,98.98290240002098,,,,,,941860,001,2023-08-04_16h45.58.700,magic_trick,2023.1.3,163.76100068787818,
38,0,38,0,,,,,,,,,,,,,,,,,,,,,,,,,,,99.97974360000808,100.48082910000812,,,,,,941860,001,2023-08-04_16h45.58.700,magic_trick,2023.1.3,163.76100068787818,
39,0,39,0,,,,,,,,,,,,,,,,,,,,,,,,,,,101.4779296000197,101.98308580002049,,,,,,941860,001,2023-08-04_16h45.58.700,magic_trick,2023.1.3,163.76100068787818,
40,0,40,0,,,,,,,,,,,,,,,,,,,,,,,,,,,102.98005420001573,103.4803112000227,,,,,,941860,001,2023-08-04_16h45.58.700,magic_trick,2023.1.3,163.76100068787818,
41,0,41,0,,,,,,,,,,,,,,,,,,,,,,,,,,,104.47798270001658,104.98203020001529,,,,,,941860,001,2023-08-04_16h45.58.700,magic_trick,2023.1.3,163.76100068787818,
42,0,42,0,,,,,,,,,,,,,,,,,,,,,,,,,,,105.97915970001486,106.47972060000757,,,,,,941860,001,2023-08-04_16h45.58.700,magic_trick,2023.1.3,163.76100068787818,
43,0,43,0,,,,,,,,,,,,,,,,,,,,,,,,,,,107.47696280002128,107.98242380001466,,,,,,941860,001,2023-08-04_16h45.58.700,magic_trick,2023.1.3,163.76100068787818,
44,0,44,0,,,,,,,,,,,,,,,,,,,,,,,,,,,108.97887400002219,109.47939110000152,,,,,,941860,001,2023-08-04_16h45.58.700,magic_trick,2023.1.3,163.76100068787818,
45,0,45,0,,,,,,,,,,,,,,,,,,,,,,,,,,,110.47683160001179,110.9817016000161,,,,,,941860,001,2023-08-04_16h45.58.700,magic_trick,2023.1.3,163.76100068787818,
46,0,46,0,,,,,,,,,,,,,,,,,,,,,,,,,,,111.9793381000054,112.47926990000997,,,,,,941860,001,2023-08-04_16h45.58.700,magic_trick,2023.1.3,163.76100068787818,
47,0,47,0,,,,,,,,,,,,,,,,,,,,,,,,,,,113.47741570000653,113.98109330001171,,,,,,941860,001,2023-08-04_16h45.58.700,magic_trick,2023.1.3,163.76100068787818,
48,0,48,0,,,,,,,,,,,,,,,,,,,,,,,,,,,114.98004230001243,115.47936800000025,,,,,,941860,001,2023-08-04_16h45.58.700,magic_trick,2023.1.3,163.76100068787818,
49,0,49,0,,,,,,,,,,,,,,,,,,,,,,,,,,,116.47739450001973,116.98130630000378,,,,,,941860,001,2023-08-04_16h45.58.700,magic_trick,2023.1.3,163.76100068787818,
50,0,50,0,,,,,,,,,,,,,,,,,,,,,,,,,,,117.97843710001325,118.47861560000456,,,,,,941860,001,2023-08-04_16h45.58.700,magic_trick,2023.1.3,163.76100068787818,
51,0,51,0,,,,,,,,,,,,,,,,,,,,,,,,,,,119.47520050001913,119.98157260002336,,,,,,941860,001,2023-08-04_16h45.58.700,magic_trick,2023.1.3,163.76100068787818,
52,0,52,0,,,,,,,,,,,,,,,,,,,,,,,,,,,120.97804200000246,121.47912800000631,,,,,,941860,001,2023-08-04_16h45.58.700,magic_trick,2023.1.3,163.76100068787818,
53,0,53,0,,,,,,,,,,,,,,,,,,,,,,,,,,,122.47476820001611,122.98093890000018,,,,,,941860,001,2023-08-04_16h45.58.700,magic_trick,2023.1.3,163.76100068787818,
54,0,54,0,,,,,,,,,,,,,,,,,,,,,,,,,,,123.97810330000357,124.47933950001607,,,,,,941860,001,2023-08-04_16h45.58.700,magic_trick,2023.1.3,163.76100068787818,
55,0,55,0,,,,,,,,,,,,,,,,,,,,,,,,,,,125.47443970001768,125.98030850000214,,,,,,941860,001,2023-08-04_16h45.58.700,magic_trick,2023.1.3,163.76100068787818,
56,0,56,0,,,,,,,,,,,,,,,,,,,,,,,,,,,126.9782587000227,127.47997760001454,,,,,,941860,001,2023-08-04_16h45.58.700,magic_trick,2023.1.3,163.76100068787818,
57,0,57,0,,,,,,,,,,,,,,,,,,,,,,,,,,,128.47420570001123,128.97986190000665,,,,,,941860,001,2023-08-04_16h45.58.700,magic_trick,2023.1.3,163.76100068787818,
58,0,58,0,,,,,,,,,,,,,,,,,,,,,,,,,,,129.97815310000442,130.48333859999548,,,,,,941860,001,2023-08-04_16h45.58.700,magic_trick,2023.1.3,163.76100068787818,
59,0,59,0,,,,,,,,,,,,,,,,,,,,,,,,,,,131.48052209999878,131.97970930000884,,,,,,941860,001,2023-08-04_16h45.58.700,magic_trick,2023.1.3,163.76100068787818,
60,0,60,0,,,,,,,,,,,,,,,,,,,,,,,,,,,132.97722570001497,133.48323670000536,,,,,,941860,001,2023-08-04_16h45.58.700,magic_trick,2023.1.3,163.76100068787818,
61,0,61,0,,,,,,,,,,,,,,,,,,,,,,,,,,,134.47959730000002,134.97947829999612,,,,,,941860,001,2023-08-04_16h45.58.700,magic_trick,2023.1.3,163.76100068787818,
62,0,62,0,,,,,,,,,,,,,,,,,,,,,,,,,,,135.97829420000198,136.48246130000916,,,,,,941860,001,2023-08-04_16h45.58.700,magic_trick,2023.1.3,163.76100068787818,
63,0,63,0,,,,,,,,,,,,,,,,,,,,,,,,,,,137.47964150001644,137.97987260000082,,,,,,941860,001,2023-08-04_16h45.58.700,magic_trick,2023.1.3,163.76100068787818,
64,0,64,0,,,,,,,,,,,,,,,,,,,,,,,,,,,138.97633279999718,139.48624460000428,,,,,,941860,001,2023-08-04_16h45.58.700,magic_trick,2023.1.3,163.76100068787818,
65,0,65,0,,,,,,,,,,,,,,,,,,,,,,,,,,,140.47971030001645,140.97894680002355,,,,,,941860,001,2023-08-04_16h45.58.700,magic_trick,2023.1.3,163.76100068787818,
66,0,66,0,,,,,,,,,,,,,,,,,,,,,,,,,,,141.97722580001573,142.48282620002283,,,,,,941860,001,2023-08-04_16h45.58.700,magic_trick,2023.1.3,163.76100068787818,
67,0,67,0,,,,,,,,,,,,,,,,,,,,,,,,,,,143.47888340000645,143.9793711999955,,,,,,941860,001,2023-08-04_16h45.58.700,magic_trick,2023.1.3,163.76100068787818,
68,0,68,0,,,,,,,,,,,,,,,,,,,,,,,,,,,144.97571250001783,145.48256010000478,,,,,,941860,001,2023-08-04_16h45.58.700,magic_trick,2023.1.3,163.76100068787818,
69,0,69,0,,,,,,,,,,,,,,,,,,,,,,,,,,,146.47848130000057,146.97956110001542,,,,,,941860,001,2023-08-04_16h45.58.700,magic_trick,2023.1.3,163.76100068787818,
70,0,70,0,,,,,,,,,,,,,,,,,,,,,,,,,,,147.97523270000238,148.48084180001752,,,,,,941860,001,2023-08-04_16h45.58.700,magic_trick,2023.1.3,163.76100068787818,
71,0,71,0,,,,,,,,,,,,,,,,,,,,,,,,,,,149.47826400000486,149.97993460000725,,,,,,941860,001,2023-08-04_16h45.58.700,magic_trick,2023.1.3,163.76100068787818,
72,0,72,0,,,,,,,,,,,,,,,,,,,,,,,,,,,150.97492360000615,151.48198010001215,,,,,,941860,001,2023-08-04_16h45.58.700,magic_trick,2023.1.3,163.76100068787818,
73,0,73,0,,,,,,,,,,,,,,,,,,,,,,,,,,,152.47840580000775,152.97912020000513,,,,,,941860,001,2023-08-04_16h45.58.700,magic_trick,2023.1.3,163.76100068787818,
74,0,74,0,,,,,,,,,,,,,,,,,,,,,,,,,,,153.97455189999891,154.48141850001412,,,,,,941860,001,2023-08-04_16h45.58.700,magic_trick,2023.1.3,163.76100068787818,
75,0,75,0,,,,,,,,,,,,,,,,,,,,,,,,,,,155.47839200001908,155.97969510001712,,,,,,941860,001,2023-08-04_16h45.58.700,magic_trick,2023.1.3,163.76100068787818,
76,0,76,0,,,,,,,,,,,,,,,,,,,,,,,,,,,156.97438770000008,157.4808801000181,,,,,,941860,001,2023-08-04_16h45.58.700,magic_trick,2023.1.3,163.76100068787818,
77,0,77,0,,,,,,,,,,,,,,,,,,,,,,,,,,,158.47850019999896,158.98246890000883,,,,,,941860,001,2023-08-04_16h45.58.700,magic_trick,2023.1.3,163.76100068787818,
78,0,78,0,,,,,,,,,,,,,,,,,,,,,,,,,,,159.98030660001677,160.4796198999975,,,,,,941860,001,2023-08-04_16h45.58.700,magic_trick,2023.1.3,163.76100068787818,
79,0,79,0,,,,,,,,,,,,,,,,,,,,,,,,,,,161.4789728000178,161.982599400013,,,,,,941860,001,2023-08-04_16h45.58.700,magic_trick,2023.1.3,163.76100068787818,
80,0,80,0,,,,,,,,,,,,,,,,,,,,,,,,,,,162.97966209999868,163.4802685000177,,,,,,941860,001,2023-08-04_16h45.58.700,magic_trick,2023.1.3,163.76100068787818,
81,0,81,0,,,,,,,,,,,,,,,,,,,,,,,,,,,164.478626600001,164.9818051000184,,,,,,941860,001,2023-08-04_16h45.58.700,magic_trick,2023.1.3,163.76100068787818,
82,0,82,0,,,,,,,,,,,,,,,,,,,,,,,,,,,165.98035460000392,166.48013820001506,,,,,,941860,001,2023-08-04_16h45.58.700,magic_trick,2023.1.3,163.76100068787818,
83,0,83,0,,,,,,,,,,,,,,,,,,,,,,,,,,,167.4780287000176,167.98198120002053,,,,,,941860,001,2023-08-04_16h45.58.700,magic_trick,2023.1.3,163.76100068787818,
84,0,84,0,,,,,,,,,,,,,,,,,,,,,,,,,,,168.97927490001894,169.47987010001088,,,,,,941860,001,2023-08-04_16h45.58.700,magic_trick,2023.1.3,163.76100068787818,
85,0,85,0,,,,,,,,,,,,,,,,,,,,,,,,,,,170.47749980000663,170.98207810000167,,,,,,941860,001,2023-08-04_16h45.58.700,magic_trick,2023.1.3,163.76100068787818,
86,0,86,0,,,,,,,,,,,,,,,,,,,,,,,,,,,171.9790240000002,172.4797526000184,,,,,,941860,001,2023-08-04_16h45.58.700,magic_trick,2023.1.3,163.76100068787818,
87,0,87,0,,,,,,,,,,,,,,,,,,,,,,,,,,,173.4758083000197,173.98187230000622,,,,,,941860,001,2023-08-04_16h45.58.700,magic_trick,2023.1.3,163.76100068787818,
88,0,88,0,,,,,,,,,,,,,,,,,,,,,,,,,,,174.9786604999972,175.47898880002322,,,,,,941860,001,2023-08-04_16h45.58.700,magic_trick,2023.1.3,163.76100068787818,
89,0,89,0,,,,,,,,,,,,,,,,,,,,,,,,,,,176.47530360001838,176.98081450001337,,,,,,941860,001,2023-08-04_16h45.58.700,magic_trick,2023.1.3,163.76100068787818,
90,0,90,0,,,,,,,,,,,,,,,,,,,,,,,,,,,177.97861410002224,178.47990430000937,,,,,,941860,001,2023-08-04_16h45.58.700,magic_trick,2023.1.3,163.76100068787818,
91,0,91,0,,,,,,,,,,,,,,,,,,,,,,,,,,,179.47503220001818,179.98109549999936,,,,,,941860,001,2023-08-04_16h45.58.700,magic_trick,2023.1.3,163.76100068787818,
92,0,92,0,,,,,,,,,,,,,,,,,,,,,,,,,,,180.97841520002112,181.47985080000944,,,,,,941860,001,2023-08-04_16h45.58.700,magic_trick,2023.1.3,163.76100068787818,
93,0,93,0,,,,,,,,,,,,,,,,,,,,,,,,,,,182.47475560000748,182.98071000000346,,,,,,941860,001,2023-08-04_16h45.58.700,magic_trick,2023.1.3,163.76100068787818,
94,0,94,0,,,,,,,,,,,,,,,,,,,,,,,,,,,183.9777035000152,184.48128670000006,,,,,,941860,001,2023-08-04_16h45.58.700,magic_trick,2023.1.3,163.76100068787818,
95,0,95,0,,,,,,,,,,,,,,,,,,,,,,,,,,,185.4744292999967,185.98959230000037,,,,,,941860,001,2023-08-04_16h45.58.700,magic_trick,2023.1.3,163.76100068787818,
96,0,96,0,,,,,,,,,,,,,,,,,,,,,,,,,,,186.97882360001677,187.47959740000078,,,,,,941860,001,2023-08-04_16h45.58.700,magic_trick,2023.1.3,163.76100068787818,
97,0,97,0,,,,,,,,,,,,,,,,,,,,,,,,,,,188.4811047000112,188.98306779999984,,,,,,941860,001,2023-08-04_16h45.58.700,magic_trick,2023.1.3,163.76100068787818,
98,0,98,0,,,,,,,,,,,,,,,,,,,,,,,,,,,189.97781979999854,190.48343130000285,,,,,,941860,001,2023-08-04_16h45.58.700,magic_trick,2023.1.3,163.76100068787818,
99,0,99,0,,,,,,,,,,,,,,,,,,,,,,,,,,,191.47380180002074,191.9804726000002,,,,,,941860,001,2023-08-04_16h45.58.700,magic_trick,2023.1.3,163.76100068787818,
100,0,100,0,,,,,,,,,,,,,,,,,,,,,,,,,,,192.9778318000026,193.4834446000168,,,,,,941860,001,2023-08-04_16h45.58.700,magic_trick,2023.1.3,163.76100068787818,
101,0,101,0,,,,,,,,,,,,,,,,,,,,,,,,,,,194.47945959999925,194.98020220000762,,,,,,941860,001,2023-08-04_16h45.58.700,magic_trick,2023.1.3,163.76100068787818,
102,0,102,0,,,,,,,,,,,,,,,,,,,,,,,,,,,195.978230800014,196.48295400000643,,,,,,941860,001,2023-08-04_16h45.58.700,magic_trick,2023.1.3,163.76100068787818,
103,0,103,0,,,,,,,,,,,,,,,,,,,,,,,,,,,197.48085210000863,197.98058660002425,,,,,,941860,001,2023-08-04_16h45.58.700,magic_trick,2023.1.3,163.76100068787818,
104,0,104,0,,,,,,,,,,,,,,,,,,,,,,,,,,,198.9761400000134,199.48260390001815,,,,,,941860,001,2023-08-04_16h45.58.700,magic_trick,2023.1.3,163.76100068787818,
105,0,105,0,,,,,,,,,,,,,,,,,,,,,,,,,,,200.47911650000606,200.98013949999586,,,,,,941860,001,2023-08-04_16h45.58.700,magic_trick,2023.1.3,163.76100068787818,
106,0,106,0,,,,,,,,,,,,,,,,,,,,,,,,,,,201.97580899999593,202.48227720000432,,,,,,941860,001,2023-08-04_16h45.58.700,magic_trick,2023.1.3,163.76100068787818,
107,0,107,0,,,,,,,,,,,,,,,,,,,,,,,,,,,203.47893100001966,203.98017470000195,,,,,,941860,001,2023-08-04_16h45.58.700,magic_trick,2023.1.3,163.76100068787818,
108,0,108,0,,,,,,,,,,,,,,,,,,,,,,,,,,,204.97574419999728,205.4816346000007,,,,,,941860,001,2023-08-04_16h45.58.700,magic_trick,2023.1.3,163.76100068787818,
109,0,109,0,,,,,,,,,,,,,,,,,,,,,,,,,,,206.4789697000233,206.9806372000021,,,,,,941860,001,2023-08-04_16h45.58.700,magic_trick,2023.1.3,163.76100068787818,
110,0,110,0,,,,,,,,,,,,,,,,,,,,,,,,,,,207.97526740000467,208.48213200000464,,,,,,941860,001,2023-08-04_16h45.58.700,magic_trick,2023.1.3,163.76100068787818,
111,0,111,0,,,,,,,,,,,,,,,,,,,,,,,,,,,209.47909609999624,209.9802724000183,,,,,,941860,001,2023-08-04_16h45.58.700,magic_trick,2023.1.3,163.76100068787818,
112,0,112,0,,,,,,,,,,,,,,,,,,,,,,,,,,,210.97492910001893,211.4812015000207,,,,,,941860,001,2023-08-04_16h45.58.700,magic_trick,2023.1.3,163.76100068787818,
113,0,113,0,,,,,,,,,,,,,,,,,,,,,,,,,,,212.47905990001163,212.98040699999547,,,,,,941860,001,2023-08-04_16h45.58.700,magic_trick,2023.1.3,163.76100068787818,
114,0,114,0,,,,,,,,,,,,,,,,,,,,,,,,,,,213.9746076000156,214.48101240000688,,,,,,941860,001,2023-08-04_16h45.58.700,magic_trick,2023.1.3,163.76100068787818,
115,0,115,0,,,,,,,,,,,,,,,,,,,,,,,,,,,215.47918819999904,215.9793112000043,,,,,,941860,001,2023-08-04_16h45.58.700,magic_trick,2023.1.3,163.76100068787818,
116,0,116,0,,,,,,,,,,,,,,,,,,,,,,,,,,,216.97440269999788,217.48132350001833,,,,,,941860,001,2023-08-04_16h45.58.700,magic_trick,2023.1.3,163.76100068787818,
117,0,117,0,,,,,,,,,,,,,,,,,,,,,,,,,,,218.4791841999977,218.9872590000159,,,,,,941860,001,2023-08-04_16h45.58.700,magic_trick,2023.1.3,163.76100068787818,
118,0,118,0,,,,,,,,,,,,,,,,,,,,,,,,,,,219.97969609999564,220.4802856000024,,,,,,941860,001,2023-08-04_16h45.58.700,magic_trick,2023.1.3,163.76100068787818,
119,0,119,0,,,,,,,,,,,,,,,,,,,,,,,,,,,221.47858250001445,221.98276140002417,,,,,,941860,001,2023-08-04_16h45.58.700,magic_trick,2023.1.3,163.76100068787818,
120,0,120,0,,,,,,,,,,,,,,,,,,,,,,,,,,,222.9814338000142,223.48040220001712,,,,,,941860,001,2023-08-04_16h45.58.700,magic_trick,2023.1.3,163.76100068787818,
121,0,121,0,,,,,,,,,,,,,,,,,,,,,,,,,,,224.47852380000404,224.98267009999836,,,,,,941860,001,2023-08-04_16h45.58.700,magic_trick,2023.1.3,163.76100068787818,
122,0,122,0,,,,,,,,,,,,,,,,,,,,,,,,,,,225.97957779999706,226.4814452000137,,,,,,941860,001,2023-08-04_16h45.58.700,magic_trick,2023.1.3,163.76100068787818,
123,0,123,0,,,,,,,,,,,,,,,,,,,,,,,,,,,227.47618910000892,227.98250040001585,,,,,,941860,001,2023-08-04_16h45.58.700,magic_trick,2023.1.3,163.76100068787818,
124,0,124,0,,,,,,,,,,,,,,,,,,,,,,,,,,,228.9792376999976,229.48028780001914,,,,,,941860,001,2023-08-04_16h45.58.700,magic_trick,2023.1.3,163.76100068787818,
125,0,125,0,,,,,,,,,,,,,,,,,,,,,,,,,,,230.47593730001245,230.98214560002089,,,,,,941860,001,2023-08-04_16h45.58.700,magic_trick,2023.1.3,163.76100068787818,
126,0,126,0,,,,,,,,,,,,,,,,,,,,,,,,,,,231.9792476000148,232.48041670001112,,,,,,941860,001,2023-08-04_16h45.58.700,magic_trick,2023.1.3,163.76100068787818,
127,0,127,0,,,,,,,,,,,,,,,,,,,,,,,,,,,233.47567720001098,233.9820475000015,,,,,,941860,001,2023-08-04_16h45.58.700,magic_trick,2023.1.3,163.76100068787818,
128,0,128,0,,,,,,,,,,,,,,,,,,,,,,,,,,,234.97939280001447,235.4804985000228,,,,,,941860,001,2023-08-04_16h45.58.700,magic_trick,2023.1.3,163.76100068787818,
129,0,129,0,,,,,,,,,,,,,,,,,,,,,,,,,,,236.47531940002227,236.98123060000944,,,,,,941860,001,2023-08-04_16h45.58.700,magic_trick,2023.1.3,163.76100068787818,
130,0,130,0,,,,,,,,,,,,,,,,,,,,,,,,,,,237.97943510001642,238.4815492000198,,,,,,941860,001,2023-08-04_16h45.58.700,magic_trick,2023.1.3,163.76100068787818,
131,0,131,0,,,,,,,,,,,,,,,,,,,,,,,,,,,239.47499529999914,239.9808193000208,,,,,,941860,001,2023-08-04_16h45.58.700,magic_trick,2023.1.3,163.76100068787818,
132,0,132,0,,,,,,,,,,,,,,,,,,,,,,,,,,,240.97937220000313,241.48017059999984,,,,,,941860,001,2023-08-04_16h45.58.700,magic_trick,2023.1.3,163.76100068787818,
133,0,133,0,,,,,,,,,,,,,,,,,,,,,,,,,,,242.4746909000096,242.98057270000572,,,,,,941860,001,2023-08-04_16h45.58.700,magic_trick,2023.1.3,163.76100068787818,
134,0,134,0,,,,,,,,,,,,,,,,,,,,,,,,,,,243.97835970000597,244.4783997000195,,,,,,941860,001,2023-08-04_16h45.58.700,magic_trick,2023.1.3,163.76100068787818,
135,0,135,0,,,,,,,,,,,,,,,,,,,,,,,,,,,245.47438749999856,245.97993280002265,,,,,,941860,001,2023-08-04_16h45.58.700,magic_trick,2023.1.3,163.76100068787818,
136,0,136,0,,,,,,,,,,,,,,,,,,,,,,,,,,,246.97877420001896,247.47725080000237,,,,,,941860,001,2023-08-04_16h45.58.700,magic_trick,2023.1.3,163.76100068787818,
137,0,137,0,,,,,,,,,,,,,,,,,,,,,,,,,,,248.48044579999987,248.98046400002204,,,,,,941860,001,2023-08-04_16h45.58.700,magic_trick,2023.1.3,163.76100068787818,
138,0,138,0,,,,,,,,,,,,,,,,,,,,,,,,,,,249.97928709999542,250.4837683000078,,,,,,941860,001,2023-08-04_16h45.58.700,magic_trick,2023.1.3,163.76100068787818,
139,0,139,0,,,,,,,,,,,,,,,,,,,,,,,,,,,251.48092400000314,251.98073310000473,,,,,,941860,001,2023-08-04_16h45.58.700,magic_trick,2023.1.3,163.76100068787818,
140,0,140,0,,,,,,,,,,,,,,,,,,,,,,,,,,,252.9767299000232,253.4831955000118,,,,,,941860,001,2023-08-04_16h45.58.700,magic_trick,2023.1.3,163.76100068787818,
141,0,141,0,,,,,,,,,,,,,,,,,,,,,,,,,,,254.4807968000241,254.9818576000107,,,,,,941860,001,2023-08-04_16h45.58.700,magic_trick,2023.1.3,163.76100068787818,
142,0,142,0,,,,,,,,,,,,,,,,,,,,,,,,,,,255.97642990000895,256.4826858000015,,,,,,941860,001,2023-08-04_16h45.58.700,magic_trick,2023.1.3,163.76100068787818,
143,0,143,0,,,,,,,,,,,,,,,,,,,,,,,,,,,257.4794266000099,257.98030250001466,,,,,,941860,001,2023-08-04_16h45.58.700,magic_trick,2023.1.3,163.76100068787818,
144,0,144,0,,,,,,,,,,,,,,,,,,,,,,,,,,,258.9761504000053,259.4823034000001,,,,,,941860,001,2023-08-04_16h45.58.700,magic_trick,2023.1.3,163.76100068787818,
145,0,145,0,,,,,,,,,,,,,,,,,,,,,,,,,,,260.47950560000027,260.981122600002,,,,,,941860,001,2023-08-04_16h45.58.700,magic_trick,2023.1.3,163.76100068787818,
146,0,146,0,,,,,,,,,,,,,,,,,,,,,,,,,,,261.97585790001904,262.48234000001685,,,,,,941860,001,2023-08-04_16h45.58.700,magic_trick,2023.1.3,163.76100068787818,
147,0,147,0,,,,,,,,,,,,,,,,,,,,,,,,,,,263.4796364000067,263.9810956000001,,,,,,941860,001,2023-08-04_16h45.58.700,magic_trick,2023.1.3,163.76100068787818,
148,0,148,0,,,,,,,,,,,,,,,,,,,,,,,,,,,264.97548680001637,265.4823185999994,,,,,,941860,001,2023-08-04_16h45.58.700,magic_trick,2023.1.3,163.76100068787818,
149,0,149,0,,,,,,,,,,,,,,,,,,,,,,,,,,,266.47945830001845,266.9805549000157,,,,,,941860,001,2023-08-04_16h45.58.700,magic_trick,2023.1.3,163.76100068787818,
150,0,150,0,,,,,,,,,,,,,,,,,,,,,,,,,,,267.975230800017,268.4817578000075,,,,,,941860,001,2023-08-04_16h45.58.700,magic_trick,2023.1.3,163.76100068787818,
151,0,151,0,,,,,,,,,,,,,,,,,,,,,,,,,,,269.47852740000235,269.979130599997,,,,,,941860,001,2023-08-04_16h45.58.700,magic_trick,2023.1.3,163.76100068787818,
152,0,152,0,,,,,,,,,,,,,,,,,,,,,,,,,,,270.97487520001596,271.4815344000235,,,,,,941860,001,2023-08-04_16h45.58.700,magic_trick,2023.1.3,163.76100068787818,
153,0,153,0,,,,,,,,,,,,,,,,,,,,,,,,,,,272.4791738000058,272.97690030001104,,,,,,941860,001,2023-08-04_16h45.58.700,magic_trick,2023.1.3,163.76100068787818,
154,0,154,0,,,,,,,,,,,,,,,,,,,,,,,,,,,273.97504310001386,274.48042100001476,,,,,,941860,001,2023-08-04_16h45.58.700,magic_trick,2023.1.3,163.76100068787818,
155,0,155,0,,,,,,,,,,,,,,,,,,,,,,,,,,,275.47932380001293,275.9764630999998,,,,,,941860,001,2023-08-04_16h45.58.700,magic_trick,2023.1.3,163.76100068787818,
156,0,156,0,,,,,,,,,,,,,,,,,,,,,,,,,,,276.97424239999964,277.48055920001934,,,,,,941860,001,2023-08-04_16h45.58.700,magic_trick,2023.1.3,163.76100068787818,
157,0,157,0,,,,,,,,,,,,,,,,,,,,,,,,,,,278.47970230001374,278.97684260000824,,,,,,941860,001,2023-08-04_16h45.58.700,magic_trick,2023.1.3,163.76100068787818,
158,0,158,0,,,,,,,,,,,,,,,,,,,,,,,,,,,279.98008830001345,280.48095970001305,,,,,,941860,001,2023-08-04_16h45.58.700,magic_trick,2023.1.3,163.76100068787818,
159,0,159,0,,,,,,,,,,,,,,,,,,,,,,,,,,,281.4769454000052,281.98320360001526,,,,,,941860,001,2023-08-04_16h45.58.700,magic_trick,2023.1.3,163.76100068787818,
160,0,160,0,,,,,,,,,,,,,,,,,,,,,,,,,,,282.979780499998,283.48062100002426,,,,,,941860,001,2023-08-04_16h45.58.700,magic_trick,2023.1.3,163.76100068787818,
161,0,161,0,,,,,,,,,,,,,,,,,,,,,,,,,,,284.4764843000157,284.9826796000125,,,,,,941860,001,2023-08-04_16h45.58.700,magic_trick,2023.1.3,163.76100068787818,
162,0,162,0,,,,,,,,,,,,,,,,,,,,,,,,,,,285.97946709999815,286.48037080001086,,,,,,941860,001,2023-08-04_16h45.58.700,magic_trick,2023.1.3,163.76100068787818,
163,0,163,0,,,,,,,,,,,,,,,,,,,,,,,,,,,287.4761873000243,287.9864239000017,,,,,,941860,001,2023-08-04_16h45.58.700,magic_trick,2023.1.3,163.76100068787818,
164,0,164,0,,,,,,,,,,,,,,,,,,,,,,,,,,,288.9795088999963,289.48149500001455,,,,,,941860,001,2023-08-04_16h45.58.700,magic_trick,2023.1.3,163.76100068787818,
165,0,165,0,,,,,,,,,,,,,,,,,,,,,,,,,,,290.4759466999967,290.98260780001874,,,,,,941860,001,2023-08-04_16h45.58.700,magic_trick,2023.1.3,163.76100068787818,
166,0,166,0,,,,,,,,,,,,,,,,,,,,,,,,,,,291.97942909999983,292.4802525000123,,,,,,941860,001,2023-08-04_16h45.58.700,magic_trick,2023.1.3,163.76100068787818,
167,0,167,0,,,,,,,,,,,,,,,,,,,,,,,,,,,293.4755643000244,293.98232370000915,,,,,,941860,001,2023-08-04_16h45.58.700,magic_trick,2023.1.3,163.76100068787818,
168,0,168,0,,,,,,,,,,,,,,,,,,,,,,,,,,,294.9793795000005,295.48059099999955,,,,,,941860,001,2023-08-04_16h45.58.700,magic_trick,2023.1.3,163.76100068787818,
169,0,169,0,,,,,,,,,,,,,,,,,,,,,,,,,,,296.47524860000703,296.98135840002215,,,,,,941860,001,2023-08-04_16h45.58.700,magic_trick,2023.1.3,163.76100068787818,
170,0,170,0,,,,,,,,,,,,,,,,,,,,,,,,,,,297.97943610002403,298.47991290001664,,,,,,941860,001,2023-08-04_16h45.58.700,magic_trick,2023.1.3,163.76100068787818,
171,0,171,0,,,,,,,,,,,,,,,,,,,,,,,,,,,299.4749555000162,299.98159490001854,,,,,,941860,001,2023-08-04_16h45.58.700,magic_trick,2023.1.3,163.76100068787818,
172,0,172,0,,,,,,,,,,,,,,,,,,,,,,,,,,,300.97942590000457,301.4780957000039,,,,,,941860,001,2023-08-04_16h45.58.700,magic_trick,2023.1.3,163.76100068787818,
173,0,173,0,,,,,,,,,,,,,,,,,,,,,,,,,,,302.47467860000324,302.9806596999988,,,,,,941860,001,2023-08-04_16h45.58.700,magic_trick,2023.1.3,163.76100068787818,
174,0,174,0,,,,,,,,,,,,,,,,,,,,,,,,,,,303.9789565000101,304.477086400002,,,,,,941860,001,2023-08-04_16h45.58.700,magic_trick,2023.1.3,163.76100068787818,
175,0,175,0,,,,,,,,,,,,,,,,,,,,,,,,,,,305.4743701000116,305.98099750000983,,,,,,941860,001,2023-08-04_16h45.58.700,magic_trick,2023.1.3,163.76100068787818,
176,0,176,0,,,,,,,,,,,,,,,,,,,,,,,,,,,306.9772881999961,307.47957520000637,,,,,,941860,001,2023-08-04_16h45.58.700,magic_trick,2023.1.3,163.76100068787818,
177,0,177,0,,,,,,,,,,,,,,,,,,,,,,,,,,,308.48025000002235,308.9809127000044,,,,,,941860,001,2023-08-04_16h45.58.700,magic_trick,2023.1.3,163.76100068787818,
178,0,178,0,,,,,,,,,,,,,,,,,,,,,,,,,,,309.97694970000884,310.47654790000524,,,,,,941860,001,2023-08-04_16h45.58.700,magic_trick,2023.1.3,163.76100068787818,
179,0,179,0,,,,,,,,,,,,,,,,,,,,,,,,,,,311.4798905000207,311.9802758000151,,,,,,941860,001,2023-08-04_16h45.58.700,magic_trick,2023.1.3,163.76100068787818,
,,,,,,,,,,,,,,,,,,,,,,,,,,,,,,,,312.9770533000119,312.9770533000119,right,126.22378190001473,None,941860,001,2023-08-04_16h45.58.700,magic_trick,2023.1.3,163.76100068787818,
