trials.thisRepN,trials.thisTrialN,trials.thisN,trials.thisIndex,text_2.started,key_resp.started,key_resp.keys,key_resp.rt,key_resp_2.started,image.started,image_2.started,image_3.started,image_4.started,image_5.started,image_6.started,image_7.started,image_8.started,image_9.started,key_resp_2.keys,key_resp_2.rt,image_10.started,image_10.stopped,participant,session,date,expName,psychopyVersion,frameRate,
,,,,15.022375699831173,15.022375699831173,space,2.158799499971792,,,,,,,,,,,,,,,981595,001,2023-06-05_11h54.44.106,magic_trick,2022.2.5,164.8459429624933,
,,,,,,,,17.33704679994844,17.33704679994844,17.33704679994844,17.33704679994844,17.33704679994844,17.33704679994844,17.33704679994844,17.33704679994844,17.33704679994844,17.33704679994844,space,8.344922500196844,,,981595,001,2023-06-05_11h54.44.106,magic_trick,2022.2.5,164.8459429624933,
0,0,0,0,,,,,,,,,,,,,,,,,25.991423100000247,27.305879599880427,981595,001,2023-06-05_11h54.44.106,magic_trick,2022.2.5,164.8459429624933,
1,0,1,0,,,,,,,,,,,,,,,,,27.59080919995904,,981595,001,2023-06-05_11h54.44.106,magic_trick,2022.2.5,164.8459429624933,
2,0,2,0,,,,,,,,,,,,,,,,,29.189869599882513,30.50557619985193,981595,001,2023-06-05_11h54.44.106,magic_trick,2022.2.5,164.8459429624933,
3,0,3,0,,,,,,,,,,,,,,,,,30.78990549989976,32.111249699955806,981595,001,2023-06-05_11h54.44.106,magic_trick,2022.2.5,164.8459429624933,
4,0,4,0,,,,,,,,,,,,,,,,,32.38962719985284,33.705088399816304,981595,001,2023-06-05_11h54.44.106,magic_trick,2022.2.5,164.8459429624933,
5,0,5,0,,,,,,,,,,,,,,,,,33.990146999945864,,981595,001,2023-06-05_11h54.44.106,magic_trick,2022.2.5,164.8459429624933,
6,0,6,0,,,,,,,,,,,,,,,,,35.58945989981294,,981595,001,2023-06-05_11h54.44.106,magic_trick,2022.2.5,164.8459429624933,
7,0,7,0,,,,,,,,,,,,,,,,,37.189075500005856,38.5044893999584,981595,001,2023-06-05_11h54.44.106,magic_trick,2022.2.5,164.8459429624933,
8,0,8,0,,,,,,,,,,,,,,,,,38.789355099899694,40.103504200000316,981595,001,2023-06-05_11h54.44.106,magic_trick,2022.2.5,164.8459429624933,
9,0,9,0,,,,,,,,,,,,,,,,,40.6495263997931,,981595,001,2023-06-05_11h54.44.106,magic_trick,2022.2.5,164.8459429624933,
10,0,10,0,,,,,,,,,,,,,,,,,41.98920929990709,43.30383230000734,981595,001,2023-06-05_11h54.44.106,magic_trick,2022.2.5,164.8459429624933,
11,0,11,0,,,,,,,,,,,,,,,,,43.58911509998143,,981595,001,2023-06-05_11h54.44.106,magic_trick,2022.2.5,164.8459429624933,
12,0,12,0,,,,,,,,,,,,,,,,,45.18832949991338,46.503619299968705,981595,001,2023-06-05_11h54.44.106,magic_trick,2022.2.5,164.8459429624933,
13,0,13,0,,,,,,,,,,,,,,,,,46.788198799826205,48.1031339999754,981595,001,2023-06-05_11h54.44.106,magic_trick,2022.2.5,164.8459429624933,
14,0,14,0,,,,,,,,,,,,,,,,,48.388134999899194,,981595,001,2023-06-05_11h54.44.106,magic_trick,2022.2.5,164.8459429624933,
15,0,15,0,,,,,,,,,,,,,,,,,49.98751079989597,51.3035461998079,981595,001,2023-06-05_11h54.44.106,magic_trick,2022.2.5,164.8459429624933,
16,0,16,0,,,,,,,,,,,,,,,,,51.58742149989121,52.9024939998053,981595,001,2023-06-05_11h54.44.106,magic_trick,2022.2.5,164.8459429624933,
17,0,17,0,,,,,,,,,,,,,,,,,53.193987999809906,,981595,001,2023-06-05_11h54.44.106,magic_trick,2022.2.5,164.8459429624933,
18,0,18,0,,,,,,,,,,,,,,,,,54.79332339996472,,981595,001,2023-06-05_11h54.44.106,magic_trick,2022.2.5,164.8459429624933,
19,0,19,0,,,,,,,,,,,,,,,,,56.39341389993206,,981595,001,2023-06-05_11h54.44.106,magic_trick,2022.2.5,164.8459429624933,
20,0,20,0,,,,,,,,,,,,,,,,,57.992852199822664,,981595,001,2023-06-05_11h54.44.106,magic_trick,2022.2.5,164.8459429624933,
21,0,21,0,,,,,,,,,,,,,,,,,59.59264319995418,,981595,001,2023-06-05_11h54.44.106,magic_trick,2022.2.5,164.8459429624933,
22,0,22,0,,,,,,,,,,,,,,,,,61.192741099977866,,981595,001,2023-06-05_11h54.44.106,magic_trick,2022.2.5,164.8459429624933,
23,0,23,0,,,,,,,,,,,,,,,,,62.79253999982029,,981595,001,2023-06-05_11h54.44.106,magic_trick,2022.2.5,164.8459429624933,
24,0,24,0,,,,,,,,,,,,,,,,,64.3920067998115,,981595,001,2023-06-05_11h54.44.106,magic_trick,2022.2.5,164.8459429624933,
25,0,25,0,,,,,,,,,,,,,,,,,65.99175479984842,,981595,001,2023-06-05_11h54.44.106,magic_trick,2022.2.5,164.8459429624933,
26,0,26,0,,,,,,,,,,,,,,,,,67.59173609991558,,981595,001,2023-06-05_11h54.44.106,magic_trick,2022.2.5,164.8459429624933,
27,0,27,0,,,,,,,,,,,,,,,,,69.19134869985282,,981595,001,2023-06-05_11h54.44.106,magic_trick,2022.2.5,164.8459429624933,
28,0,28,0,,,,,,,,,,,,,,,,,70.79124239995144,,981595,001,2023-06-05_11h54.44.106,magic_trick,2022.2.5,164.8459429624933,
29,0,29,0,,,,,,,,,,,,,,,,,72.39155890000984,,981595,001,2023-06-05_11h54.44.106,magic_trick,2022.2.5,164.8459429624933,
30,0,30,0,,,,,,,,,,,,,,,,,73.99183279997669,,981595,001,2023-06-05_11h54.44.106,magic_trick,2022.2.5,164.8459429624933,
31,0,31,0,,,,,,,,,,,,,,,,,75.5907119999174,76.90578949986957,981595,001,2023-06-05_11h54.44.106,magic_trick,2022.2.5,164.8459429624933,
32,0,32,0,,,,,,,,,,,,,,,,,77.19060590001754,78.50558489980176,981595,001,2023-06-05_11h54.44.106,magic_trick,2022.2.5,164.8459429624933,
33,0,33,0,,,,,,,,,,,,,,,,,78.79053190001287,80.10602509998716,981595,001,2023-06-05_11h54.44.106,magic_trick,2022.2.5,164.8459429624933,
34,0,34,0,,,,,,,,,,,,,,,,,80.39042699988931,81.7064663998317,981595,001,2023-06-05_11h54.44.106,magic_trick,2022.2.5,164.8459429624933,
35,0,35,0,,,,,,,,,,,,,,,,,81.99056979990564,83.3067075998988,981595,001,2023-06-05_11h54.44.106,magic_trick,2022.2.5,164.8459429624933,
36,0,36,0,,,,,,,,,,,,,,,,,83.59053899999708,,981595,001,2023-06-05_11h54.44.106,magic_trick,2022.2.5,164.8459429624933,
37,0,37,0,,,,,,,,,,,,,,,,,85.1897650999017,86.50554209994152,981595,001,2023-06-05_11h54.44.106,magic_trick,2022.2.5,164.8459429624933,
38,0,38,0,,,,,,,,,,,,,,,,,86.7898647999391,88.10433949995786,981595,001,2023-06-05_11h54.44.106,magic_trick,2022.2.5,164.8459429624933,
39,0,39,0,,,,,,,,,,,,,,,,,88.38978619989939,89.70565149979666,981595,001,2023-06-05_11h54.44.106,magic_trick,2022.2.5,164.8459429624933,
40,0,40,0,,,,,,,,,,,,,,,,,89.98919509979896,91.3042452998925,981595,001,2023-06-05_11h54.44.106,magic_trick,2022.2.5,164.8459429624933,
41,0,41,0,,,,,,,,,,,,,,,,,91.58882929990068,92.90457999985665,981595,001,2023-06-05_11h54.44.106,magic_trick,2022.2.5,164.8459429624933,
42,0,42,0,,,,,,,,,,,,,,,,,93.18892019987106,94.50425329990685,981595,001,2023-06-05_11h54.44.106,magic_trick,2022.2.5,164.8459429624933,
43,0,43,0,,,,,,,,,,,,,,,,,94.7889291997999,96.10352919995785,981595,001,2023-06-05_11h54.44.106,magic_trick,2022.2.5,164.8459429624933,
44,0,44,0,,,,,,,,,,,,,,,,,96.3884203999769,97.70385940000415,981595,001,2023-06-05_11h54.44.106,magic_trick,2022.2.5,164.8459429624933,
45,0,45,0,,,,,,,,,,,,,,,,,97.98837109981105,99.30375339998864,981595,001,2023-06-05_11h54.44.106,magic_trick,2022.2.5,164.8459429624933,
46,0,46,0,,,,,,,,,,,,,,,,,99.59529339987785,,981595,001,2023-06-05_11h54.44.106,magic_trick,2022.2.5,164.8459429624933,
47,0,47,0,,,,,,,,,,,,,,,,,101.18842699984089,102.50323509983718,981595,001,2023-06-05_11h54.44.106,magic_trick,2022.2.5,164.8459429624933,
48,0,48,0,,,,,,,,,,,,,,,,,102.78766879998147,104.1031129998155,981595,001,2023-06-05_11h54.44.106,magic_trick,2022.2.5,164.8459429624933,
49,0,49,0,,,,,,,,,,,,,,,,,104.38786959997378,,981595,001,2023-06-05_11h54.44.106,magic_trick,2022.2.5,164.8459429624933,
